"trial_type","trial_index","time_elapsed","internal_node_id","subject","exp_id","full_screen","focus_shifts","success","rt","stimulus","key_press","trial_id","view_history","stimuli","key_presses","possible_responses","stim_durations","block_duration","timing_post_trial","exp_stage","sequence","num_digits","mouse_click","stim_duration","response","condition","correct"
"pavlovia","0","2042","0.0-0.0","1181","digit-span","true","0","","","","","","","","","","","","","","","","","","","",""
"fullscreen","1","6311","0.0-1.0","1181","digit-span","true","0","true","","","","","","","","","","","","","","","","","","",""
"html-keyboard-response","2","9506","0.0-2.0-0.0","1181","digit-span","true","0","","3192.600000023842","<div class = centerbox><p class = center-block-text>Welcome to the number game! It will take less than 5 minutes. Press <strong>""Enter/Return""</strong> to begin.</p></div>","13","instruction","","","","","","","","","","","","","","",""
"instructions","3","17678","0.0-2.0-1.0","1181","digit-span","true","0","","8171.399999976158","","","instruction","[{""page_index"":0,""viewing_time"":8171.199999988079}]","","","","","","","","","","","","","",""
"instructions","4","23610","0.0-2.0-2.0","1181","digit-span","true","0","","4931.5999999940395","","","instruction","[{""page_index"":0,""viewing_time"":4931.5}]","","","","","","","","","","","","","",""
"html-keyboard-response","5","25628","0.0-3.0-0.0","1181","digit-span","true","0","","null","<div class = centerbox><div class = center-text>2 Digits</p></div>","null","test_intro","","","","","","","","","","","","","","",""
"poldrack-multi-stim-multi-response","6","29054","0.0-3.0-1.0","1181","digit-span","true","0","","[-1]","","","stim","","[""<div class = centerbox><div class = digit-span-text>2</div></div>"",""<div class = centerbox><div class = digit-span-text>9</div></div>""]","[-1]","none","[1000,1000]","2400","0","test","2,9","2","","","","",""
"single-stim-button","7","34945","0.0-3.0-2.0","1181","digit-span","true","0","","5889","","","response","","","","","","5889","1000","test","2,9","2","SubmitButton","5889","2,9","forward","true"
"html-keyboard-response","8","35947","0.0-3.0-3.0","1181","digit-span","true","0","","null","<div class = centerbox><div class = center-text>2 Digits</p></div>","null","test_intro","","","","","","","","","","","","","","",""
"poldrack-multi-stim-multi-response","9","39351","0.0-3.0-4.0","1181","digit-span","true","0","","[-1]","","","stim","","[""<div class = centerbox><div class = digit-span-text>4</div></div>"",""<div class = centerbox><div class = digit-span-text>6</div></div>""]","[-1]","none","[1000,1000]","2400","0","test","4,6","2","","","","",""
"single-stim-button","10","43584","0.0-3.0-5.0","1181","digit-span","true","0","","4231","","","response","","","","","","4231","1000","test","4,6","2","SubmitButton","4231","4,6","forward","true"
"html-keyboard-response","11","44585","0.0-4.0-0.0","1181","digit-span","true","0","","null","<div class = centerbox><div class = center-text>3 Digits</p></div>","null","test_intro","","","","","","","","","","","","","","",""
"poldrack-multi-stim-multi-response","12","49188","0.0-4.0-1.0","1181","digit-span","true","0","","[-1]","","","stim","","[""<div class = centerbox><div class = digit-span-text>3</div></div>"",""<div class = centerbox><div class = digit-span-text>8</div></div>"",""<div class = centerbox><div class = digit-span-text>6</div></div>""]","[-1]","none","[1000,1000,1000]","3600","0","test","3,8,6","3","","","","",""
"single-stim-button","13","54121","0.0-4.0-2.0","1181","digit-span","true","0","","4932","","","response","","","","","","4932","1000","test","3,8,6","3","SubmitButton","4932","3,8,6","forward","true"
"html-keyboard-response","14","55122","0.0-4.0-3.0","1181","digit-span","true","0","","null","<div class = centerbox><div class = center-text>3 Digits</p></div>","null","test_intro","","","","","","","","","","","","","","",""
"poldrack-multi-stim-multi-response","15","59725","0.0-4.0-4.0","1181","digit-span","true","0","","[-1]","","","stim","","[""<div class = centerbox><div class = digit-span-text>6</div></div>"",""<div class = centerbox><div class = digit-span-text>1</div></div>"",""<div class = centerbox><div class = digit-span-text>2</div></div>""]","[-1]","none","[1000,1000,1000]","3600","0","test","6,1,2","3","","","","",""
"single-stim-button","16","65071","0.0-4.0-5.0","1181","digit-span","true","0","","5346","","","response","","","","","","5346","1000","test","6,1,2","3","SubmitButton","5346","6,1,2","forward","true"
"html-keyboard-response","17","66073","0.0-5.0-0.0","1181","digit-span","true","0","","null","<div class = centerbox><div class = center-text>4 Digits</p></div>","null","test_intro","","","","","","","","","","","","","","",""
"poldrack-multi-stim-multi-response","18","71877","0.0-5.0-1.0","1181","digit-span","true","0","","[-1]","","","stim","","[""<div class = centerbox><div class = digit-span-text>3</div></div>"",""<div class = centerbox><div class = digit-span-text>4</div></div>"",""<div class = centerbox><div class = digit-span-text>1</div></div>"",""<div class = centerbox><div class = digit-span-text>7</div></div>""]","[-1]","none","[1000,1000,1000,1000]","4800","0","test","3,4,1,7","4","","","","",""
"single-stim-button","19","77589","0.0-5.0-2.0","1181","digit-span","true","0","","5710","","","response","","","","","","5710","1000","test","3,4,1,7","4","SubmitButton","5710","3,4,1,7","forward","true"
"html-keyboard-response","20","78590","0.0-5.0-3.0","1181","digit-span","true","0","","null","<div class = centerbox><div class = center-text>4 Digits</p></div>","null","test_intro","","","","","","","","","","","","","","",""
"poldrack-multi-stim-multi-response","21","84393","0.0-5.0-4.0","1181","digit-span","true","0","","[-1]","","","stim","","[""<div class = centerbox><div class = digit-span-text>6</div></div>"",""<div class = centerbox><div class = digit-span-text>1</div></div>"",""<div class = centerbox><div class = digit-span-text>5</div></div>"",""<div class = centerbox><div class = digit-span-text>8</div></div>""]","[-1]","none","[1000,1000,1000,1000]","4800","0","test","6,1,5,8","4","","","","",""
"single-stim-button","22","88704","0.0-5.0-5.0","1181","digit-span","true","0","","4310","","","response","","","","","","4310","1000","test","6,1,5,8","4","SubmitButton","4310","6,1,5,8","forward","true"
"html-keyboard-response","23","89705","0.0-6.0-0.0","1181","digit-span","true","0","","null","<div class = centerbox><div class = center-text>5 Digits</p></div>","null","test_intro","","","","","","","","","","","","","","",""
"poldrack-multi-stim-multi-response","24","96708","0.0-6.0-1.0","1181","digit-span","true","0","","[-1]","","","stim","","[""<div class = centerbox><div class = digit-span-text>8</div></div>"",""<div class = centerbox><div class = digit-span-text>4</div></div>"",""<div class = centerbox><div class = digit-span-text>2</div></div>"",""<div class = centerbox><div class = digit-span-text>3</div></div>"",""<div class = centerbox><div class = digit-span-text>9</div></div>""]","[-1]","none","[1000,1000,1000,1000,1000]","6000","0","test","8,4,2,3,9","5","","","","",""
"single-stim-button","25","102685","0.0-6.0-2.0","1181","digit-span","true","0","","5975","","","response","","","","","","5975","1000","test","8,4,2,3,9","5","SubmitButton","5975","8,4,2,3,9","forward","true"
"html-keyboard-response","26","103685","0.0-6.0-3.0","1181","digit-span","true","0","","null","<div class = centerbox><div class = center-text>5 Digits</p></div>","null","test_intro","","","","","","","","","","","","","","",""
"poldrack-multi-stim-multi-response","27","110688","0.0-6.0-4.0","1181","digit-span","true","0","","[-1]","","","stim","","[""<div class = centerbox><div class = digit-span-text>5</div></div>"",""<div class = centerbox><div class = digit-span-text>2</div></div>"",""<div class = centerbox><div class = digit-span-text>1</div></div>"",""<div class = centerbox><div class = digit-span-text>8</div></div>"",""<div class = centerbox><div class = digit-span-text>6</div></div>""]","[-1]","none","[1000,1000,1000,1000,1000]","6000","0","test","5,2,1,8,6","5","","","","",""
"single-stim-button","28","116425","0.0-6.0-5.0","1181","digit-span","true","0","","5735","","","response","","","","","","5735","1000","test","5,2,1,8,6","5","SubmitButton","5735","5,2,1,8,6","forward","true"
"html-keyboard-response","29","117426","0.0-7.0-0.0","1181","digit-span","true","0","","null","<div class = centerbox><div class = center-text>6 Digits</p></div>","null","test_intro","","","","","","","","","","","","","","",""
"poldrack-multi-stim-multi-response","30","125629","0.0-7.0-1.0","1181","digit-span","true","0","","[-1]","","","stim","","[""<div class = centerbox><div class = digit-span-text>3</div></div>"",""<div class = centerbox><div class = digit-span-text>8</div></div>"",""<div class = centerbox><div class = digit-span-text>9</div></div>"",""<div class = centerbox><div class = digit-span-text>1</div></div>"",""<div class = centerbox><div class = digit-span-text>7</div></div>"",""<div class = centerbox><div class = digit-span-text>4</div></div>""]","[-1]","none","[1000,1000,1000,1000,1000,1000]","7200","0","test","3,8,9,1,7,4","6","","","","",""
"single-stim-button","31","134972","0.0-7.0-2.0","1181","digit-span","true","0","","9342","","","response","","","","","","9342","1000","test","3,8,9,1,7,4","6","SubmitButton","9342","3,8,9,1,7,4","forward","true"
"html-keyboard-response","32","135974","0.0-7.0-3.0","1181","digit-span","true","0","","null","<div class = centerbox><div class = center-text>6 Digits</p></div>","null","test_intro","","","","","","","","","","","","","","",""
"poldrack-multi-stim-multi-response","33","144177","0.0-7.0-4.0","1181","digit-span","true","0","","[-1]","","","stim","","[""<div class = centerbox><div class = digit-span-text>7</div></div>"",""<div class = centerbox><div class = digit-span-text>9</div></div>"",""<div class = centerbox><div class = digit-span-text>6</div></div>"",""<div class = centerbox><div class = digit-span-text>4</div></div>"",""<div class = centerbox><div class = digit-span-text>8</div></div>"",""<div class = centerbox><div class = digit-span-text>3</div></div>""]","[-1]","none","[1000,1000,1000,1000,1000,1000]","7200","0","test","7,9,6,4,8,3","6","","","","",""
"single-stim-button","34","153693","0.0-7.0-5.0","1181","digit-span","true","0","","9514","","","response","","","","","","9514","1000","test","7,9,6,4,8,3","6","SubmitButton","9514","7,9,6,4,8,3","forward","true"
"html-keyboard-response","35","154694","0.0-8.0-0.0","1181","digit-span","true","0","","null","<div class = centerbox><div class = center-text>7 Digits</p></div>","null","test_intro","","","","","","","","","","","","","","",""
"poldrack-multi-stim-multi-response","36","164096","0.0-8.0-1.0","1181","digit-span","true","0","","[-1]","","","stim","","[""<div class = centerbox><div class = digit-span-text>5</div></div>"",""<div class = centerbox><div class = digit-span-text>1</div></div>"",""<div class = centerbox><div class = digit-span-text>7</div></div>"",""<div class = centerbox><div class = digit-span-text>4</div></div>"",""<div class = centerbox><div class = digit-span-text>2</div></div>"",""<div class = centerbox><div class = digit-span-text>3</div></div>"",""<div class = centerbox><div class = digit-span-text>8</div></div>""]","[-1]","none","[1000,1000,1000,1000,1000,1000,1000]","8400","0","test","5,1,7,4,2,3,8","7","","","","",""
"single-stim-button","37","177949","0.0-8.0-2.0","1181","digit-span","true","0","","13851","","","response","","","","","","13851","1000","test","5,1,7,4,2,3,8","7","SubmitButton","13851","5,1,7,4,2,3,8","forward","true"
"html-keyboard-response","38","178950","0.0-8.0-3.0","1181","digit-span","true","0","","null","<div class = centerbox><div class = center-text>7 Digits</p></div>","null","test_intro","","","","","","","","","","","","","","",""
"poldrack-multi-stim-multi-response","39","188354","0.0-8.0-4.0","1181","digit-span","true","0","","[-1]","","","stim","","[""<div class = centerbox><div class = digit-span-text>9</div></div>"",""<div class = centerbox><div class = digit-span-text>8</div></div>"",""<div class = centerbox><div class = digit-span-text>5</div></div>"",""<div class = centerbox><div class = digit-span-text>2</div></div>"",""<div class = centerbox><div class = digit-span-text>1</div></div>"",""<div class = centerbox><div class = digit-span-text>6</div></div>"",""<div class = centerbox><div class = digit-span-text>3</div></div>""]","[-1]","none","[1000,1000,1000,1000,1000,1000,1000]","8400","0","test","9,8,5,2,1,6,3","7","","","","",""
"single-stim-button","40","200666","0.0-8.0-5.0","1181","digit-span","true","0","","12311","","","response","","","","","","12311","1000","test","9,8,5,2,1,6,3","7","SubmitButton","12311","9,8,5,2,6,1,3","forward","false"
"html-keyboard-response","41","201667","0.0-9.0-0.0","1181","digit-span","true","0","","null","<div class = centerbox><div class = center-text>8 Digits</p></div>","null","test_intro","","","","","","","","","","","","","","",""
"poldrack-multi-stim-multi-response","42","212272","0.0-9.0-1.0","1181","digit-span","true","0","","[-1]","","","stim","","[""<div class = centerbox><div class = digit-span-text>1</div></div>"",""<div class = centerbox><div class = digit-span-text>6</div></div>"",""<div class = centerbox><div class = digit-span-text>4</div></div>"",""<div class = centerbox><div class = digit-span-text>5</div></div>"",""<div class = centerbox><div class = digit-span-text>9</div></div>"",""<div class = centerbox><div class = digit-span-text>7</div></div>"",""<div class = centerbox><div class = digit-span-text>6</div></div>"",""<div class = centerbox><div class = digit-span-text>3</div></div>""]","[-1]","none","[1000,1000,1000,1000,1000,1000,1000,1000]","9600","0","test","1,6,4,5,9,7,6,3","8","","","","",""
"single-stim-button","43","229415","0.0-9.0-2.0","1181","digit-span","true","0","","17141","","","response","","","","","","17141","1000","test","1,6,4,5,9,7,6,3","8","SubmitButton","17141","1,6,4,5,9,7,6,1,3","forward","false"
"html-keyboard-response","44","230416","0.0-9.0-3.0","1181","digit-span","true","0","","null","<div class = centerbox><div class = center-text>8 Digits</p></div>","null","test_intro","","","","","","","","","","","","","","",""
"poldrack-multi-stim-multi-response","45","241018","0.0-9.0-4.0","1181","digit-span","true","0","","[-1]","","","stim","","[""<div class = centerbox><div class = digit-span-text>2</div></div>"",""<div class = centerbox><div class = digit-span-text>9</div></div>"",""<div class = centerbox><div class = digit-span-text>7</div></div>"",""<div class = centerbox><div class = digit-span-text>6</div></div>"",""<div class = centerbox><div class = digit-span-text>3</div></div>"",""<div class = centerbox><div class = digit-span-text>1</div></div>"",""<div class = centerbox><div class = digit-span-text>5</div></div>"",""<div class = centerbox><div class = digit-span-text>4</div></div>""]","[-1]","none","[1000,1000,1000,1000,1000,1000,1000,1000]","9600","0","test","2,9,7,6,3,1,5,4","8","","","","",""
"single-stim-button","46","256190","0.0-9.0-5.0","1181","digit-span","true","0","","15171","","","response","","","","","","15171","1000","test","2,9,7,6,3,1,5,4","8","SubmitButton","15171","2,1,7,6,3,1,5,4","forward","false"
"html-keyboard-response","47","262371","0.0-11.0","1181","digit-span","true","0","","6180.4000000059605","<div class = centerbox><p class = block-text>Now, you will see some numbers, but this time you will enter them <strong>backward</strong>.<br><br>For example, you see <strong>“1—5”</strong>, and you will enter <strong>“5—1”</strong>.<br><br><br>Press <strong>""Enter/Return""</strong> to begin.</p></div>","13","start_reverse","","","","","","","","","","","","","","",""
"html-keyboard-response","48","263373","0.0-12.0-0.0","1181","digit-span","true","0","","null","<div class = centerbox><div class = center-text>2 Digits</p></div>","null","test_intro","","","","","","","","","","","","","","",""
"poldrack-multi-stim-multi-response","49","266775","0.0-12.0-1.0","1181","digit-span","true","0","","[-1]","","","stim","","[""<div class = centerbox><div class = digit-span-text>8</div></div>"",""<div class = centerbox><div class = digit-span-text>2</div></div>""]","[-1]","none","[1000,1000]","2400","0","test","8,2","2","","","","",""
"single-stim-button","50","270448","0.0-12.0-2.0","1181","digit-span","true","0","","3672","","","response","","","","","","3672","1000","test","8,2","2","SubmitButton","3672","2,8","practice","true"
"html-keyboard-response","51","280449","0.0-12.0-3.0","1181","digit-span","true","0","","null","<div class = centerbox><div class = center-block-text><span style=""color:green"">Correct!</span></div></div>","null","feedback","","","","","","","","","","","","","","",""
"html-keyboard-response","52","281451","0.0-12.0-4.0","1181","digit-span","true","0","","null","<div class = centerbox><div class = center-text>2 Digits</p></div>","null","test_intro","","","","","","","","","","","","","","",""
"poldrack-multi-stim-multi-response","53","284855","0.0-12.0-5.0","1181","digit-span","true","0","","[-1]","","","stim","","[""<div class = centerbox><div class = digit-span-text>5</div></div>"",""<div class = centerbox><div class = digit-span-text>6</div></div>""]","[-1]","none","[1000,1000]","2400","0","test","5,6","2","","","","",""
"single-stim-button","54","288448","0.0-12.0-6.0","1181","digit-span","true","0","","3592","","","response","","","","","","3592","1000","test","5,6","2","SubmitButton","3592","6,5","practice","true"
"html-keyboard-response","55","289450","0.0-13.0-0.0","1181","digit-span","true","0","","null","<div class = centerbox><div class = center-text>2 Digits</p></div>","null","test_intro","","","","","","","","","","","","","","",""
"poldrack-multi-stim-multi-response","56","292854","0.0-13.0-1.0","1181","digit-span","true","0","","[-1]","","","stim","","[""<div class = centerbox><div class = digit-span-text>2</div></div>"",""<div class = centerbox><div class = digit-span-text>5</div></div>""]","[-1]","none","[1000,1000]","2400","0","test","2,5","2","","","","",""
"single-stim-button","57","295693","0.0-13.0-2.0","1181","digit-span","true","0","","2838","","","response","","","","","","2838","1000","test","2,5","2","SubmitButton","2838","5,2","reverse","true"
"html-keyboard-response","58","296695","0.0-13.0-3.0","1181","digit-span","true","0","","null","<div class = centerbox><div class = center-text>2 Digits</p></div>","null","test_intro","","","","","","","","","","","","","","",""
"poldrack-multi-stim-multi-response","59","300098","0.0-13.0-4.0","1181","digit-span","true","0","","[-1]","","","stim","","[""<div class = centerbox><div class = digit-span-text>6</div></div>"",""<div class = centerbox><div class = digit-span-text>3</div></div>""]","[-1]","none","[1000,1000]","2400","0","test","6,3","2","","","","",""
"single-stim-button","60","303305","0.0-13.0-5.0","1181","digit-span","true","0","","3206","","","response","","","","","","3206","1000","test","6,3","2","SubmitButton","3206","3,6","reverse","true"
"html-keyboard-response","61","304307","0.0-14.0-0.0","1181","digit-span","true","0","","null","<div class = centerbox><div class = center-text>3 Digits</p></div>","null","test_intro","","","","","","","","","","","","","","",""
"poldrack-multi-stim-multi-response","62","308911","0.0-14.0-1.0","1181","digit-span","true","0","","[-1]","","","stim","","[""<div class = centerbox><div class = digit-span-text>5</div></div>"",""<div class = centerbox><div class = digit-span-text>7</div></div>"",""<div class = centerbox><div class = digit-span-text>4</div></div>""]","[-1]","none","[1000,1000,1000]","3600","0","test","5,7,4","3","","","","",""
"single-stim-button","63","316116","0.0-14.0-2.0","1181","digit-span","true","0","","7205","","","response","","","","","","7205","1000","test","5,7,4","3","SubmitButton","7205","4,7,5","reverse","true"
"html-keyboard-response","64","317118","0.0-14.0-3.0","1181","digit-span","true","0","","null","<div class = centerbox><div class = center-text>3 Digits</p></div>","null","test_intro","","","","","","","","","","","","","","",""
"poldrack-multi-stim-multi-response","65","321722","0.0-14.0-4.0","1181","digit-span","true","0","","[-1]","","","stim","","[""<div class = centerbox><div class = digit-span-text>2</div></div>"",""<div class = centerbox><div class = digit-span-text>5</div></div>"",""<div class = centerbox><div class = digit-span-text>9</div></div>""]","[-1]","none","[1000,1000,1000]","3600","0","test","2,5,9","3","","","","",""
"single-stim-button","66","327764","0.0-14.0-5.0","1181","digit-span","true","0","","6041","","","response","","","","","","6041","1000","test","2,5,9","3","SubmitButton","6041","9,5,2","reverse","true"
"html-keyboard-response","67","328765","0.0-15.0-0.0","1181","digit-span","true","0","","null","<div class = centerbox><div class = center-text>4 Digits</p></div>","null","test_intro","","","","","","","","","","","","","","",""
"poldrack-multi-stim-multi-response","68","334568","0.0-15.0-1.0","1181","digit-span","true","0","","[-1]","","","stim","","[""<div class = centerbox><div class = digit-span-text>7</div></div>"",""<div class = centerbox><div class = digit-span-text>2</div></div>"",""<div class = centerbox><div class = digit-span-text>9</div></div>"",""<div class = centerbox><div class = digit-span-text>6</div></div>""]","[-1]","none","[1000,1000,1000,1000]","4800","0","test","7,2,9,6","4","","","","",""
"single-stim-button","69","343304","0.0-15.0-2.0","1181","digit-span","true","0","","8735","","","response","","","","","","8735","1000","test","7,2,9,6","4","SubmitButton","8735","6,9,2,7","reverse","true"
"html-keyboard-response","70","344305","0.0-15.0-3.0","1181","digit-span","true","0","","null","<div class = centerbox><div class = center-text>4 Digits</p></div>","null","test_intro","","","","","","","","","","","","","","",""
"poldrack-multi-stim-multi-response","71","350108","0.0-15.0-4.0","1181","digit-span","true","0","","[-1]","","","stim","","[""<div class = centerbox><div class = digit-span-text>8</div></div>"",""<div class = centerbox><div class = digit-span-text>4</div></div>"",""<div class = centerbox><div class = digit-span-text>9</div></div>"",""<div class = centerbox><div class = digit-span-text>3</div></div>""]","[-1]","none","[1000,1000,1000,1000]","4800","0","test","8,4,9,3","4","","","","",""
"single-stim-button","72","358852","0.0-15.0-5.0","1181","digit-span","true","0","","8744","","","response","","","","","","8744","1000","test","8,4,9,3","4","SubmitButton","8744","3,9,4,8","reverse","true"
"html-keyboard-response","73","359853","0.0-16.0-0.0","1181","digit-span","true","0","","null","<div class = centerbox><div class = center-text>5 Digits</p></div>","null","test_intro","","","","","","","","","","","","","","",""
"poldrack-multi-stim-multi-response","74","366857","0.0-16.0-1.0","1181","digit-span","true","0","","[-1]","","","stim","","[""<div class = centerbox><div class = digit-span-text>4</div></div>"",""<div class = centerbox><div class = digit-span-text>1</div></div>"",""<div class = centerbox><div class = digit-span-text>3</div></div>"",""<div class = centerbox><div class = digit-span-text>5</div></div>"",""<div class = centerbox><div class = digit-span-text>7</div></div>""]","[-1]","none","[1000,1000,1000,1000,1000]","6000","0","test","4,1,3,5,7","5","","","","",""
"single-stim-button","75","384465","0.0-16.0-2.0","1181","digit-span","true","0","","17607","","","response","","","","","","17607","1000","test","4,1,3,5,7","5","SubmitButton","17607","7,5,3,1,4","reverse","true"
"html-keyboard-response","76","385467","0.0-16.0-3.0","1181","digit-span","true","0","","null","<div class = centerbox><div class = center-text>5 Digits</p></div>","null","test_intro","","","","","","","","","","","","","","",""
"poldrack-multi-stim-multi-response","77","392471","0.0-16.0-4.0","1181","digit-span","true","0","","[-1]","","","stim","","[""<div class = centerbox><div class = digit-span-text>9</div></div>"",""<div class = centerbox><div class = digit-span-text>7</div></div>"",""<div class = centerbox><div class = digit-span-text>8</div></div>"",""<div class = centerbox><div class = digit-span-text>5</div></div>"",""<div class = centerbox><div class = digit-span-text>2</div></div>""]","[-1]","none","[1000,1000,1000,1000,1000]","6000","0","test","9,7,8,5,2","5","","","","",""
"single-stim-button","78","400988","0.0-16.0-5.0","1181","digit-span","true","0","","8515","","","response","","","","","","8515","1000","test","9,7,8,5,2","5","SubmitButton","8515","2,5,8,7,9","reverse","true"
"html-keyboard-response","79","401989","0.0-17.0-0.0","1181","digit-span","true","0","","null","<div class = centerbox><div class = center-text>6 Digits</p></div>","null","test_intro","","","","","","","","","","","","","","",""
"poldrack-multi-stim-multi-response","80","410193","0.0-17.0-1.0","1181","digit-span","true","0","","[-1]","","","stim","","[""<div class = centerbox><div class = digit-span-text>1</div></div>"",""<div class = centerbox><div class = digit-span-text>6</div></div>"",""<div class = centerbox><div class = digit-span-text>5</div></div>"",""<div class = centerbox><div class = digit-span-text>2</div></div>"",""<div class = centerbox><div class = digit-span-text>9</div></div>"",""<div class = centerbox><div class = digit-span-text>8</div></div>""]","[-1]","none","[1000,1000,1000,1000,1000,1000]","7200","0","test","1,6,5,2,9,8","6","","","","",""
"single-stim-button","81","424440","0.0-17.0-2.0","1181","digit-span","true","0","","14246","","","response","","","","","","14246","1000","test","1,6,5,2,9,8","6","SubmitButton","14246","8,9,2,5,6,1","reverse","true"
"html-keyboard-response","82","425442","0.0-17.0-3.0","1181","digit-span","true","0","","null","<div class = centerbox><div class = center-text>6 Digits</p></div>","null","test_intro","","","","","","","","","","","","","","",""
"poldrack-multi-stim-multi-response","83","433646","0.0-17.0-4.0","1181","digit-span","true","0","","[-1]","","","stim","","[""<div class = centerbox><div class = digit-span-text>3</div></div>"",""<div class = centerbox><div class = digit-span-text>6</div></div>"",""<div class = centerbox><div class = digit-span-text>7</div></div>"",""<div class = centerbox><div class = digit-span-text>1</div></div>"",""<div class = centerbox><div class = digit-span-text>9</div></div>"",""<div class = centerbox><div class = digit-span-text>4</div></div>""]","[-1]","none","[1000,1000,1000,1000,1000,1000]","7200","0","test","3,6,7,1,9,4","6","","","","",""
"single-stim-button","84","467499","0.0-17.0-5.0","1181","digit-span","true","0","","33851","","","response","","","","","","33851","1000","test","3,6,7,1,9,4","6","SubmitButton","33851","4,9,1,7,6,3","reverse","true"
"html-keyboard-response","85","468500","0.0-18.0-0.0","1181","digit-span","true","0","","null","<div class = centerbox><div class = center-text>7 Digits</p></div>","null","test_intro","","","","","","","","","","","","","","",""
"poldrack-multi-stim-multi-response","86","477904","0.0-18.0-1.0","1181","digit-span","true","0","","[-1]","","","stim","","[""<div class = centerbox><div class = digit-span-text>8</div></div>"",""<div class = centerbox><div class = digit-span-text>5</div></div>"",""<div class = centerbox><div class = digit-span-text>9</div></div>"",""<div class = centerbox><div class = digit-span-text>2</div></div>"",""<div class = centerbox><div class = digit-span-text>3</div></div>"",""<div class = centerbox><div class = digit-span-text>4</div></div>"",""<div class = centerbox><div class = digit-span-text>2</div></div>""]","[-1]","none","[1000,1000,1000,1000,1000,1000,1000]","8400","0","test","8,5,9,2,3,4,2","7","","","","",""
"single-stim-button","87","514082","0.0-18.0-2.0","1181","digit-span","true","0","","36177","","","response","","","","","","36177","1000","test","8,5,9,2,3,4,2","7","SubmitButton","36177","2,4,3,9,5,9,8","reverse","false"
"html-keyboard-response","88","515084","0.0-18.0-3.0","1181","digit-span","true","0","","null","<div class = centerbox><div class = center-text>7 Digits</p></div>","null","test_intro","","","","","","","","","","","","","","",""
"poldrack-multi-stim-multi-response","89","524498","0.0-18.0-4.0","1181","digit-span","true","0","","[-1]","","","stim","","[""<div class = centerbox><div class = digit-span-text>4</div></div>"",""<div class = centerbox><div class = digit-span-text>5</div></div>"",""<div class = centerbox><div class = digit-span-text>7</div></div>"",""<div class = centerbox><div class = digit-span-text>9</div></div>"",""<div class = centerbox><div class = digit-span-text>2</div></div>"",""<div class = centerbox><div class = digit-span-text>8</div></div>"",""<div class = centerbox><div class = digit-span-text>1</div></div>""]","[-1]","none","[1000,1000,1000,1000,1000,1000,1000]","8400","0","test","4,5,7,9,2,8,1","7","","","","",""
"single-stim-button","90","544878","0.0-18.0-5.0","1181","digit-span","true","0","","20378","","","response","","","","","","20378","1000","test","4,5,7,9,2,8,1","7","SubmitButton","20378","1,8,2,9,7,5,4","reverse","true"
"html-keyboard-response","91","545879","0.0-19.0-0.0","1181","digit-span","true","0","","null","<div class = centerbox><div class = center-text>8 Digits</p></div>","null","test_intro","","","","","","","","","","","","","","",""
"poldrack-multi-stim-multi-response","92","556482","0.0-19.0-1.0","1181","digit-span","true","0","","[-1]","","","stim","","[""<div class = centerbox><div class = digit-span-text>6</div></div>"",""<div class = centerbox><div class = digit-span-text>9</div></div>"",""<div class = centerbox><div class = digit-span-text>1</div></div>"",""<div class = centerbox><div class = digit-span-text>6</div></div>"",""<div class = centerbox><div class = digit-span-text>3</div></div>"",""<div class = centerbox><div class = digit-span-text>2</div></div>"",""<div class = centerbox><div class = digit-span-text>5</div></div>"",""<div class = centerbox><div class = digit-span-text>8</div></div>""]","[-1]","none","[1000,1000,1000,1000,1000,1000,1000,1000]","9600","0","test","6,9,1,6,3,2,5,8","8","","","","",""
"single-stim-button","93","618619","0.0-19.0-2.0","1181","digit-span","true","0","","62135","","","response","","","","","","62135","1000","test","6,9,1,6,3,2,5,8","8","SubmitButton","62135","8,5,2,3,1,5,9,6","reverse","false"
"html-keyboard-response","94","619621","0.0-19.0-3.0","1181","digit-span","true","0","","null","<div class = centerbox><div class = center-text>8 Digits</p></div>","null","test_intro","","","","","","","","","","","","","","",""
"poldrack-multi-stim-multi-response","95","630224","0.0-19.0-4.0","1181","digit-span","true","0","","[-1]","","","stim","","[""<div class = centerbox><div class = digit-span-text>3</div></div>"",""<div class = centerbox><div class = digit-span-text>1</div></div>"",""<div class = centerbox><div class = digit-span-text>7</div></div>"",""<div class = centerbox><div class = digit-span-text>9</div></div>"",""<div class = centerbox><div class = digit-span-text>5</div></div>"",""<div class = centerbox><div class = digit-span-text>4</div></div>"",""<div class = centerbox><div class = digit-span-text>8</div></div>"",""<div class = centerbox><div class = digit-span-text>2</div></div>""]","[-1]","none","[1000,1000,1000,1000,1000,1000,1000,1000]","9600","0","test","3,1,7,9,5,4,8,2","8","","","","",""
"single-stim-button","96","649662","0.0-19.0-5.0","1181","digit-span","true","0","","19437","","","response","","","","","","19437","1000","test","3,1,7,9,5,4,8,2","8","SubmitButton","19437","2,8,4,5,9,7,1,3","reverse","true"
"image-keyboard-response","97","678007","0.0-20.0","1181","digit-span","true","0","","28345.09999999404","img/trophy2.jpeg","13","end","","","","","","","","","","","","","","",""
