"trial_type","trial_index","time_elapsed","internal_node_id","subject","exp_id","full_screen","focus_shifts","success","rt","stimulus","key_press","trial_id","view_history","stimuli","key_presses","possible_responses","stim_durations","block_duration","timing_post_trial","exp_stage","sequence","num_digits","mouse_click","stim_duration","response","condition","correct"
"pavlovia","0","1849","0.0-0.0","1008","digit-span","true","0","","","","","","","","","","","","","","","","","","","",""
"fullscreen","1","5467","0.0-1.0","1008","digit-span","true","0","true","","","","","","","","","","","","","","","","","","",""
"html-keyboard-response","2","10481","0.0-2.0-0.0","1008","digit-span","true","0","","5006.300000008196","<div class = centerbox><p class = center-block-text>Welcome to the number game! It will take less than 5 minutes. Press <strong>""Enter/Return""</strong> to begin.</p></div>","13","instruction","","","","","","","","","","","","","","",""
"instructions","3","20334","0.0-2.0-1.0","1008","digit-span","true","0","","9851.584999996703","","","instruction","[{""page_index"":0,""viewing_time"":9850.430000005872}]","","","","","","","","","","","","","",""
"instructions","4","27171","0.0-2.0-2.0","1008","digit-span","true","0","","5832.999999998719","","","instruction","[{""page_index"":0,""viewing_time"":5831.359999996494}]","","","","","","","","","","","","","",""
"html-keyboard-response","5","29180","0.0-3.0-0.0","1008","digit-span","true","0","","null","<div class = centerbox><div class = center-text>2 Digits</p></div>","null","test_intro","","","","","","","","","","","","","","",""
"poldrack-multi-stim-multi-response","6","32597","0.0-3.0-1.0","1008","digit-span","true","0","","[-1]","","","stim","","[""<div class = centerbox><div class = digit-span-text>2</div></div>"",""<div class = centerbox><div class = digit-span-text>9</div></div>""]","[-1]","none","[1000,1000]","2400","0","test","2,9","2","","","","",""
"single-stim-button","7","35567","0.0-3.0-2.0","1008","digit-span","true","0","","2963","","","response","","","","","","2963","1000","test","2,9","2","SubmitButton","2963","2,9","forward","true"
"html-keyboard-response","8","36570","0.0-3.0-3.0","1008","digit-span","true","0","","null","<div class = centerbox><div class = center-text>2 Digits</p></div>","null","test_intro","","","","","","","","","","","","","","",""
"poldrack-multi-stim-multi-response","9","39974","0.0-3.0-4.0","1008","digit-span","true","0","","[-1]","","","stim","","[""<div class = centerbox><div class = digit-span-text>4</div></div>"",""<div class = centerbox><div class = digit-span-text>6</div></div>""]","[-1]","none","[1000,1000]","2400","0","test","4,6","2","","","","",""
"single-stim-button","10","46422","0.0-3.0-5.0","1008","digit-span","true","0","","6446","","","response","","","","","","6446","1000","test","4,6","2","SubmitButton","6446","4,6","forward","true"
"html-keyboard-response","11","47426","0.0-4.0-0.0","1008","digit-span","true","0","","null","<div class = centerbox><div class = center-text>3 Digits</p></div>","null","test_intro","","","","","","","","","","","","","","",""
"poldrack-multi-stim-multi-response","12","52034","0.0-4.0-1.0","1008","digit-span","true","0","","[-1]","","","stim","","[""<div class = centerbox><div class = digit-span-text>3</div></div>"",""<div class = centerbox><div class = digit-span-text>8</div></div>"",""<div class = centerbox><div class = digit-span-text>6</div></div>""]","[-1]","none","[1000,1000,1000]","3600","0","test","3,8,6","3","","","","",""
"single-stim-button","13","58362","0.0-4.0-2.0","1008","digit-span","true","0","","6324","","","response","","","","","","6324","1000","test","3,8,6","3","SubmitButton","6324","3,8,6","forward","true"
"html-keyboard-response","14","59365","0.0-4.0-3.0","1008","digit-span","true","0","","null","<div class = centerbox><div class = center-text>3 Digits</p></div>","null","test_intro","","","","","","","","","","","","","","",""
"poldrack-multi-stim-multi-response","15","63971","0.0-4.0-4.0","1008","digit-span","true","0","","[-1]","","","stim","","[""<div class = centerbox><div class = digit-span-text>6</div></div>"",""<div class = centerbox><div class = digit-span-text>1</div></div>"",""<div class = centerbox><div class = digit-span-text>2</div></div>""]","[-1]","none","[1000,1000,1000]","3600","0","test","6,1,2","3","","","","",""
"single-stim-button","16","67592","0.0-4.0-5.0","1008","digit-span","true","0","","3617","","","response","","","","","","3617","1000","test","6,1,2","3","SubmitButton","3617","6,1,2","forward","true"
"html-keyboard-response","17","68595","0.0-5.0-0.0","1008","digit-span","true","0","","null","<div class = centerbox><div class = center-text>4 Digits</p></div>","null","test_intro","","","","","","","","","","","","","","",""
"poldrack-multi-stim-multi-response","18","74400","0.0-5.0-1.0","1008","digit-span","true","0","","[-1]","","","stim","","[""<div class = centerbox><div class = digit-span-text>3</div></div>"",""<div class = centerbox><div class = digit-span-text>4</div></div>"",""<div class = centerbox><div class = digit-span-text>1</div></div>"",""<div class = centerbox><div class = digit-span-text>7</div></div>""]","[-1]","none","[1000,1000,1000,1000]","4800","0","test","3,4,1,7","4","","","","",""
"single-stim-button","19","79660","0.0-5.0-2.0","1008","digit-span","true","0","","5256","","","response","","","","","","5256","1000","test","3,4,1,7","4","SubmitButton","5256","3,4,1,7","forward","true"
"html-keyboard-response","20","80664","0.0-5.0-3.0","1008","digit-span","true","0","","null","<div class = centerbox><div class = center-text>4 Digits</p></div>","null","test_intro","","","","","","","","","","","","","","",""
"poldrack-multi-stim-multi-response","21","86469","0.0-5.0-4.0","1008","digit-span","true","0","","[-1]","","","stim","","[""<div class = centerbox><div class = digit-span-text>6</div></div>"",""<div class = centerbox><div class = digit-span-text>1</div></div>"",""<div class = centerbox><div class = digit-span-text>5</div></div>"",""<div class = centerbox><div class = digit-span-text>8</div></div>""]","[-1]","none","[1000,1000,1000,1000]","4800","0","test","6,1,5,8","4","","","","",""
"single-stim-button","22","90603","0.0-5.0-5.0","1008","digit-span","true","0","","4129","","","response","","","","","","4129","1000","test","6,1,5,8","4","SubmitButton","4129","6,1,5,8","forward","true"
"html-keyboard-response","23","91607","0.0-6.0-0.0","1008","digit-span","true","0","","null","<div class = centerbox><div class = center-text>5 Digits</p></div>","null","test_intro","","","","","","","","","","","","","","",""
"poldrack-multi-stim-multi-response","24","98611","0.0-6.0-1.0","1008","digit-span","true","0","","[-1]","","","stim","","[""<div class = centerbox><div class = digit-span-text>8</div></div>"",""<div class = centerbox><div class = digit-span-text>4</div></div>"",""<div class = centerbox><div class = digit-span-text>2</div></div>"",""<div class = centerbox><div class = digit-span-text>3</div></div>"",""<div class = centerbox><div class = digit-span-text>9</div></div>""]","[-1]","none","[1000,1000,1000,1000,1000]","6000","0","test","8,4,2,3,9","5","","","","",""
"single-stim-button","25","103854","0.0-6.0-2.0","1008","digit-span","true","0","","5240","","","response","","","","","","5240","1000","test","8,4,2,3,9","5","SubmitButton","5240","8,4,2,3,9","forward","true"
"html-keyboard-response","26","104857","0.0-6.0-3.0","1008","digit-span","true","0","","null","<div class = centerbox><div class = center-text>5 Digits</p></div>","null","test_intro","","","","","","","","","","","","","","",""
"poldrack-multi-stim-multi-response","27","111862","0.0-6.0-4.0","1008","digit-span","true","0","","[-1]","","","stim","","[""<div class = centerbox><div class = digit-span-text>5</div></div>"",""<div class = centerbox><div class = digit-span-text>2</div></div>"",""<div class = centerbox><div class = digit-span-text>1</div></div>"",""<div class = centerbox><div class = digit-span-text>8</div></div>"",""<div class = centerbox><div class = digit-span-text>6</div></div>""]","[-1]","none","[1000,1000,1000,1000,1000]","6000","0","test","5,2,1,8,6","5","","","","",""
"single-stim-button","28","117899","0.0-6.0-5.0","1008","digit-span","true","0","","6033","","","response","","","","","","6033","1000","test","5,2,1,8,6","5","SubmitButton","6033","5,2,1,8,6","forward","true"
"html-keyboard-response","29","118902","0.0-7.0-0.0","1008","digit-span","true","0","","null","<div class = centerbox><div class = center-text>6 Digits</p></div>","null","test_intro","","","","","","","","","","","","","","",""
"poldrack-multi-stim-multi-response","30","127110","0.0-7.0-1.0","1008","digit-span","true","0","","[-1]","","","stim","","[""<div class = centerbox><div class = digit-span-text>3</div></div>"",""<div class = centerbox><div class = digit-span-text>8</div></div>"",""<div class = centerbox><div class = digit-span-text>9</div></div>"",""<div class = centerbox><div class = digit-span-text>1</div></div>"",""<div class = centerbox><div class = digit-span-text>7</div></div>"",""<div class = centerbox><div class = digit-span-text>4</div></div>""]","[-1]","none","[1000,1000,1000,1000,1000,1000]","7200","0","test","3,8,9,1,7,4","6","","","","",""
"single-stim-button","31","133728","0.0-7.0-2.0","1008","digit-span","true","0","","6615","","","response","","","","","","6615","1000","test","3,8,9,1,7,4","6","SubmitButton","6615","3,8,9,1,7,4","forward","true"
"html-keyboard-response","32","134731","0.0-7.0-3.0","1008","digit-span","true","0","","null","<div class = centerbox><div class = center-text>6 Digits</p></div>","null","test_intro","","","","","","","","","","","","","","",""
"poldrack-multi-stim-multi-response","33","142937","0.0-7.0-4.0","1008","digit-span","true","0","","[-1]","","","stim","","[""<div class = centerbox><div class = digit-span-text>7</div></div>"",""<div class = centerbox><div class = digit-span-text>9</div></div>"",""<div class = centerbox><div class = digit-span-text>6</div></div>"",""<div class = centerbox><div class = digit-span-text>4</div></div>"",""<div class = centerbox><div class = digit-span-text>8</div></div>"",""<div class = centerbox><div class = digit-span-text>3</div></div>""]","[-1]","none","[1000,1000,1000,1000,1000,1000]","7200","0","test","7,9,6,4,8,3","6","","","","",""
"single-stim-button","34","153989","0.0-7.0-5.0","1008","digit-span","true","0","","11049","","","response","","","","","","11049","1000","test","7,9,6,4,8,3","6","SubmitButton","11049","7,4,9,8,6,3","forward","false"
"html-keyboard-response","35","154992","0.0-8.0-0.0","1008","digit-span","true","0","","null","<div class = centerbox><div class = center-text>7 Digits</p></div>","null","test_intro","","","","","","","","","","","","","","",""
"poldrack-multi-stim-multi-response","36","164398","0.0-8.0-1.0","1008","digit-span","true","0","","[-1]","","","stim","","[""<div class = centerbox><div class = digit-span-text>5</div></div>"",""<div class = centerbox><div class = digit-span-text>1</div></div>"",""<div class = centerbox><div class = digit-span-text>7</div></div>"",""<div class = centerbox><div class = digit-span-text>4</div></div>"",""<div class = centerbox><div class = digit-span-text>2</div></div>"",""<div class = centerbox><div class = digit-span-text>3</div></div>"",""<div class = centerbox><div class = digit-span-text>8</div></div>""]","[-1]","none","[1000,1000,1000,1000,1000,1000,1000]","8400","0","test","5,1,7,4,2,3,8","7","","","","",""
"single-stim-button","37","328076","0.0-8.0-2.0","1008","digit-span","true","0","","163674","","","response","","","","","","163674","1000","test","5,1,7,4,2,3,8","7","SubmitButton","163674","5,1,9,7,4,3,2","forward","false"
"html-keyboard-response","38","329079","0.0-8.0-3.0","1008","digit-span","true","0","","null","<div class = centerbox><div class = center-text>7 Digits</p></div>","null","test_intro","","","","","","","","","","","","","","",""
"poldrack-multi-stim-multi-response","39","338485","0.0-8.0-4.0","1008","digit-span","true","0","","[-1]","","","stim","","[""<div class = centerbox><div class = digit-span-text>9</div></div>"",""<div class = centerbox><div class = digit-span-text>8</div></div>"",""<div class = centerbox><div class = digit-span-text>5</div></div>"",""<div class = centerbox><div class = digit-span-text>2</div></div>"",""<div class = centerbox><div class = digit-span-text>1</div></div>"",""<div class = centerbox><div class = digit-span-text>6</div></div>"",""<div class = centerbox><div class = digit-span-text>3</div></div>""]","[-1]","none","[1000,1000,1000,1000,1000,1000,1000]","8400","0","test","9,8,5,2,1,6,3","7","","","","",""
"single-stim-button","40","349626","0.0-8.0-5.0","1008","digit-span","true","0","","11137","","","response","","","","","","11137","1000","test","9,8,5,2,1,6,3","7","SubmitButton","11137","9,8,5,2,1,6,3","forward","true"
"html-keyboard-response","41","350632","0.0-9.0-0.0","1008","digit-span","true","0","","null","<div class = centerbox><div class = center-text>8 Digits</p></div>","null","test_intro","","","","","","","","","","","","","","",""
"poldrack-multi-stim-multi-response","42","361238","0.0-9.0-1.0","1008","digit-span","true","0","","[-1]","","","stim","","[""<div class = centerbox><div class = digit-span-text>1</div></div>"",""<div class = centerbox><div class = digit-span-text>6</div></div>"",""<div class = centerbox><div class = digit-span-text>4</div></div>"",""<div class = centerbox><div class = digit-span-text>5</div></div>"",""<div class = centerbox><div class = digit-span-text>9</div></div>"",""<div class = centerbox><div class = digit-span-text>7</div></div>"",""<div class = centerbox><div class = digit-span-text>6</div></div>"",""<div class = centerbox><div class = digit-span-text>3</div></div>""]","[-1]","none","[1000,1000,1000,1000,1000,1000,1000,1000]","9600","0","test","1,6,4,5,9,7,6,3","8","","","","",""
"single-stim-button","43","373367","0.0-9.0-2.0","1008","digit-span","true","0","","12125","","","response","","","","","","12125","1000","test","1,6,4,5,9,7,6,3","8","SubmitButton","12125","1,6,4,5,9,7,6,3","forward","true"
"html-keyboard-response","44","374370","0.0-9.0-3.0","1008","digit-span","true","0","","null","<div class = centerbox><div class = center-text>8 Digits</p></div>","null","test_intro","","","","","","","","","","","","","","",""
"poldrack-multi-stim-multi-response","45","384976","0.0-9.0-4.0","1008","digit-span","true","0","","[-1]","","","stim","","[""<div class = centerbox><div class = digit-span-text>2</div></div>"",""<div class = centerbox><div class = digit-span-text>9</div></div>"",""<div class = centerbox><div class = digit-span-text>7</div></div>"",""<div class = centerbox><div class = digit-span-text>6</div></div>"",""<div class = centerbox><div class = digit-span-text>3</div></div>"",""<div class = centerbox><div class = digit-span-text>1</div></div>"",""<div class = centerbox><div class = digit-span-text>5</div></div>"",""<div class = centerbox><div class = digit-span-text>4</div></div>""]","[-1]","none","[1000,1000,1000,1000,1000,1000,1000,1000]","9600","0","test","2,9,7,6,3,1,5,4","8","","","","",""
"single-stim-button","46","400338","0.0-9.0-5.0","1008","digit-span","true","0","","15358","","","response","","","","","","15358","1000","test","2,9,7,6,3,1,5,4","8","SubmitButton","15358","2,9,7,6,3,1,5,4","forward","true"
"html-keyboard-response","47","401342","0.0-10.0-0.0","1008","digit-span","true","0","","null","<div class = centerbox><div class = center-text>9 Digits</p></div>","null","test_intro","","","","","","","","","","","","","","",""
"poldrack-multi-stim-multi-response","48","413149","0.0-10.0-1.0","1008","digit-span","true","0","","[-1]","","","stim","","[""<div class = centerbox><div class = digit-span-text>5</div></div>"",""<div class = centerbox><div class = digit-span-text>3</div></div>"",""<div class = centerbox><div class = digit-span-text>8</div></div>"",""<div class = centerbox><div class = digit-span-text>7</div></div>"",""<div class = centerbox><div class = digit-span-text>1</div></div>"",""<div class = centerbox><div class = digit-span-text>2</div></div>"",""<div class = centerbox><div class = digit-span-text>4</div></div>"",""<div class = centerbox><div class = digit-span-text>6</div></div>"",""<div class = centerbox><div class = digit-span-text>9</div></div>""]","[-1]","none","[1000,1000,1000,1000,1000,1000,1000,1000,1000]","10800","0","test","5,3,8,7,1,2,4,6,9","9","","","","",""
"single-stim-button","49","433634","0.0-10.0-2.0","1008","digit-span","true","0","","20482","","","response","","","","","","20482","1000","test","5,3,8,7,1,2,4,6,9","9","SubmitButton","20482","5,3,8,7,1,2,4,6,9","forward","true"
"html-keyboard-response","50","434640","0.0-10.0-3.0","1008","digit-span","true","0","","null","<div class = centerbox><div class = center-text>9 Digits</p></div>","null","test_intro","","","","","","","","","","","","","","",""
"poldrack-multi-stim-multi-response","51","446446","0.0-10.0-4.0","1008","digit-span","true","0","","[-1]","","","stim","","[""<div class = centerbox><div class = digit-span-text>4</div></div>"",""<div class = centerbox><div class = digit-span-text>2</div></div>"",""<div class = centerbox><div class = digit-span-text>6</div></div>"",""<div class = centerbox><div class = digit-span-text>9</div></div>"",""<div class = centerbox><div class = digit-span-text>1</div></div>"",""<div class = centerbox><div class = digit-span-text>7</div></div>"",""<div class = centerbox><div class = digit-span-text>8</div></div>"",""<div class = centerbox><div class = digit-span-text>3</div></div>"",""<div class = centerbox><div class = digit-span-text>5</div></div>""]","[-1]","none","[1000,1000,1000,1000,1000,1000,1000,1000,1000]","10800","0","test","4,2,6,9,1,7,8,3,5","9","","","","",""
"single-stim-button","52","463063","0.0-10.0-5.0","1008","digit-span","true","0","","16613","","","response","","","","","","16613","1000","test","4,2,6,9,1,7,8,3,5","9","SubmitButton","16613","4,2,6,9,1,7,8,3,5","forward","true"
"html-keyboard-response","53","474260","0.0-11.0","1008","digit-span","true","0","","11194.080000001122","<div class = centerbox><p class = block-text>Now, you will see some numbers, but this time you will enter them <strong>backward</strong>.<br><br>For example, you see <strong>“1—5”</strong>, and you will enter <strong>“5—1”</strong>.<br><br><br>Press <strong>""Enter/Return""</strong> to begin.</p></div>","13","start_reverse","","","","","","","","","","","","","","",""
"html-keyboard-response","54","475268","0.0-12.0-0.0","1008","digit-span","true","0","","null","<div class = centerbox><div class = center-text>2 Digits</p></div>","null","test_intro","","","","","","","","","","","","","","",""
"poldrack-multi-stim-multi-response","55","478675","0.0-12.0-1.0","1008","digit-span","true","0","","[-1]","","","stim","","[""<div class = centerbox><div class = digit-span-text>8</div></div>"",""<div class = centerbox><div class = digit-span-text>2</div></div>""]","[-1]","none","[1000,1000]","2400","0","test","8,2","2","","","","",""
"single-stim-button","56","483224","0.0-12.0-2.0","1008","digit-span","true","0","","4546","","","response","","","","","","4546","1000","test","8,2","2","SubmitButton","4546","2,8","practice","true"
"html-keyboard-response","57","493228","0.0-12.0-3.0","1008","digit-span","true","0","","null","<div class = centerbox><div class = center-block-text><span style=""color:green"">Correct!</span></div></div>","null","feedback","","","","","","","","","","","","","","",""
"html-keyboard-response","58","494233","0.0-12.0-4.0","1008","digit-span","true","0","","null","<div class = centerbox><div class = center-text>2 Digits</p></div>","null","test_intro","","","","","","","","","","","","","","",""
"poldrack-multi-stim-multi-response","59","497641","0.0-12.0-5.0","1008","digit-span","true","0","","[-1]","","","stim","","[""<div class = centerbox><div class = digit-span-text>5</div></div>"",""<div class = centerbox><div class = digit-span-text>6</div></div>""]","[-1]","none","[1000,1000]","2400","0","test","5,6","2","","","","",""
"single-stim-button","60","500342","0.0-12.0-6.0","1008","digit-span","true","0","","2698","","","response","","","","","","2698","1000","test","5,6","2","SubmitButton","2698","6,5","practice","true"
"html-keyboard-response","61","501346","0.0-13.0-0.0","1008","digit-span","true","0","","null","<div class = centerbox><div class = center-text>2 Digits</p></div>","null","test_intro","","","","","","","","","","","","","","",""
"poldrack-multi-stim-multi-response","62","504751","0.0-13.0-1.0","1008","digit-span","true","0","","[-1]","","","stim","","[""<div class = centerbox><div class = digit-span-text>2</div></div>"",""<div class = centerbox><div class = digit-span-text>5</div></div>""]","[-1]","none","[1000,1000]","2400","0","test","2,5","2","","","","",""
"single-stim-button","63","511908","0.0-13.0-2.0","1008","digit-span","true","0","","7154","","","response","","","","","","7154","1000","test","2,5","2","SubmitButton","7154","5,2","reverse","true"
"html-keyboard-response","64","512911","0.0-13.0-3.0","1008","digit-span","true","0","","null","<div class = centerbox><div class = center-text>2 Digits</p></div>","null","test_intro","","","","","","","","","","","","","","",""
"poldrack-multi-stim-multi-response","65","516316","0.0-13.0-4.0","1008","digit-span","true","0","","[-1]","","","stim","","[""<div class = centerbox><div class = digit-span-text>6</div></div>"",""<div class = centerbox><div class = digit-span-text>3</div></div>""]","[-1]","none","[1000,1000]","2400","0","test","6,3","2","","","","",""
"single-stim-button","66","519010","0.0-13.0-5.0","1008","digit-span","true","0","","2691","","","response","","","","","","2691","1000","test","6,3","2","SubmitButton","2691","3,6","reverse","true"
"html-keyboard-response","67","520013","0.0-14.0-0.0","1008","digit-span","true","0","","null","<div class = centerbox><div class = center-text>3 Digits</p></div>","null","test_intro","","","","","","","","","","","","","","",""
"poldrack-multi-stim-multi-response","68","524620","0.0-14.0-1.0","1008","digit-span","true","0","","[-1]","","","stim","","[""<div class = centerbox><div class = digit-span-text>5</div></div>"",""<div class = centerbox><div class = digit-span-text>7</div></div>"",""<div class = centerbox><div class = digit-span-text>4</div></div>""]","[-1]","none","[1000,1000,1000]","3600","0","test","5,7,4","3","","","","",""
"single-stim-button","69","531433","0.0-14.0-2.0","1008","digit-span","true","0","","6810","","","response","","","","","","6810","1000","test","5,7,4","3","SubmitButton","6810","4,7,5","reverse","true"
"html-keyboard-response","70","532437","0.0-14.0-3.0","1008","digit-span","true","0","","null","<div class = centerbox><div class = center-text>3 Digits</p></div>","null","test_intro","","","","","","","","","","","","","","",""
"poldrack-multi-stim-multi-response","71","537043","0.0-14.0-4.0","1008","digit-span","true","0","","[-1]","","","stim","","[""<div class = centerbox><div class = digit-span-text>2</div></div>"",""<div class = centerbox><div class = digit-span-text>5</div></div>"",""<div class = centerbox><div class = digit-span-text>9</div></div>""]","[-1]","none","[1000,1000,1000]","3600","0","test","2,5,9","3","","","","",""
"single-stim-button","72","542284","0.0-14.0-5.0","1008","digit-span","true","0","","5237","","","response","","","","","","5237","1000","test","2,5,9","3","SubmitButton","5237","9,5,2","reverse","true"
"html-keyboard-response","73","543287","0.0-15.0-0.0","1008","digit-span","true","0","","null","<div class = centerbox><div class = center-text>4 Digits</p></div>","null","test_intro","","","","","","","","","","","","","","",""
"poldrack-multi-stim-multi-response","74","549104","0.0-15.0-1.0","1008","digit-span","true","0","","[-1]","","","stim","","[""<div class = centerbox><div class = digit-span-text>7</div></div>"",""<div class = centerbox><div class = digit-span-text>2</div></div>"",""<div class = centerbox><div class = digit-span-text>9</div></div>"",""<div class = centerbox><div class = digit-span-text>6</div></div>""]","[-1]","none","[1000,1000,1000,1000]","4800","0","test","7,2,9,6","4","","","","",""
"single-stim-button","75","556033","0.0-15.0-2.0","1008","digit-span","true","0","","6926","","","response","","","","","","6926","1000","test","7,2,9,6","4","SubmitButton","6926","6,9,2,7","reverse","true"
"html-keyboard-response","76","557037","0.0-15.0-3.0","1008","digit-span","true","0","","null","<div class = centerbox><div class = center-text>4 Digits</p></div>","null","test_intro","","","","","","","","","","","","","","",""
"poldrack-multi-stim-multi-response","77","562842","0.0-15.0-4.0","1008","digit-span","true","0","","[-1]","","","stim","","[""<div class = centerbox><div class = digit-span-text>8</div></div>"",""<div class = centerbox><div class = digit-span-text>4</div></div>"",""<div class = centerbox><div class = digit-span-text>9</div></div>"",""<div class = centerbox><div class = digit-span-text>3</div></div>""]","[-1]","none","[1000,1000,1000,1000]","4800","0","test","8,4,9,3","4","","","","",""
"single-stim-button","78","574745","0.0-15.0-5.0","1008","digit-span","true","0","","11900","","","response","","","","","","11900","1000","test","8,4,9,3","4","SubmitButton","11900","3,9,4,8","reverse","true"
"html-keyboard-response","79","575749","0.0-16.0-0.0","1008","digit-span","true","0","","null","<div class = centerbox><div class = center-text>5 Digits</p></div>","null","test_intro","","","","","","","","","","","","","","",""
"poldrack-multi-stim-multi-response","80","582753","0.0-16.0-1.0","1008","digit-span","true","0","","[-1]","","","stim","","[""<div class = centerbox><div class = digit-span-text>4</div></div>"",""<div class = centerbox><div class = digit-span-text>1</div></div>"",""<div class = centerbox><div class = digit-span-text>3</div></div>"",""<div class = centerbox><div class = digit-span-text>5</div></div>"",""<div class = centerbox><div class = digit-span-text>7</div></div>""]","[-1]","none","[1000,1000,1000,1000,1000]","6000","0","test","4,1,3,5,7","5","","","","",""
"single-stim-button","81","590997","0.0-16.0-2.0","1008","digit-span","true","0","","8241","","","response","","","","","","8241","1000","test","4,1,3,5,7","5","SubmitButton","8241","7,5,3,1,4","reverse","true"
"html-keyboard-response","82","592001","0.0-16.0-3.0","1008","digit-span","true","0","","null","<div class = centerbox><div class = center-text>5 Digits</p></div>","null","test_intro","","","","","","","","","","","","","","",""
"poldrack-multi-stim-multi-response","83","599008","0.0-16.0-4.0","1008","digit-span","true","0","","[-1]","","","stim","","[""<div class = centerbox><div class = digit-span-text>9</div></div>"",""<div class = centerbox><div class = digit-span-text>7</div></div>"",""<div class = centerbox><div class = digit-span-text>8</div></div>"",""<div class = centerbox><div class = digit-span-text>5</div></div>"",""<div class = centerbox><div class = digit-span-text>2</div></div>""]","[-1]","none","[1000,1000,1000,1000,1000]","6000","0","test","9,7,8,5,2","5","","","","",""
"single-stim-button","84","612897","0.0-16.0-5.0","1008","digit-span","true","0","","13884","","","response","","","","","","13884","1000","test","9,7,8,5,2","5","SubmitButton","13884","2,5,8,7,9","reverse","true"
"html-keyboard-response","85","613902","0.0-17.0-0.0","1008","digit-span","true","0","","null","<div class = centerbox><div class = center-text>6 Digits</p></div>","null","test_intro","","","","","","","","","","","","","","",""
"poldrack-multi-stim-multi-response","86","622109","0.0-17.0-1.0","1008","digit-span","true","0","","[-1]","","","stim","","[""<div class = centerbox><div class = digit-span-text>1</div></div>"",""<div class = centerbox><div class = digit-span-text>6</div></div>"",""<div class = centerbox><div class = digit-span-text>5</div></div>"",""<div class = centerbox><div class = digit-span-text>2</div></div>"",""<div class = centerbox><div class = digit-span-text>9</div></div>"",""<div class = centerbox><div class = digit-span-text>8</div></div>""]","[-1]","none","[1000,1000,1000,1000,1000,1000]","7200","0","test","1,6,5,2,9,8","6","","","","",""
"single-stim-button","87","632475","0.0-17.0-2.0","1008","digit-span","true","0","","10361","","","response","","","","","","10361","1000","test","1,6,5,2,9,8","6","SubmitButton","10361","8,9,2,5,6,1","reverse","true"
"html-keyboard-response","88","633480","0.0-17.0-3.0","1008","digit-span","true","0","","null","<div class = centerbox><div class = center-text>6 Digits</p></div>","null","test_intro","","","","","","","","","","","","","","",""
"poldrack-multi-stim-multi-response","89","641686","0.0-17.0-4.0","1008","digit-span","true","0","","[-1]","","","stim","","[""<div class = centerbox><div class = digit-span-text>3</div></div>"",""<div class = centerbox><div class = digit-span-text>6</div></div>"",""<div class = centerbox><div class = digit-span-text>7</div></div>"",""<div class = centerbox><div class = digit-span-text>1</div></div>"",""<div class = centerbox><div class = digit-span-text>9</div></div>"",""<div class = centerbox><div class = digit-span-text>4</div></div>""]","[-1]","none","[1000,1000,1000,1000,1000,1000]","7200","0","test","3,6,7,1,9,4","6","","","","",""
"single-stim-button","90","655009","0.0-17.0-5.0","1008","digit-span","true","0","","13319","","","response","","","","","","13319","1000","test","3,6,7,1,9,4","6","SubmitButton","13319","4,9,1,7,6,3","reverse","true"
"html-keyboard-response","91","656013","0.0-18.0-0.0","1008","digit-span","true","0","","null","<div class = centerbox><div class = center-text>7 Digits</p></div>","null","test_intro","","","","","","","","","","","","","","",""
"poldrack-multi-stim-multi-response","92","665419","0.0-18.0-1.0","1008","digit-span","true","0","","[-1]","","","stim","","[""<div class = centerbox><div class = digit-span-text>8</div></div>"",""<div class = centerbox><div class = digit-span-text>5</div></div>"",""<div class = centerbox><div class = digit-span-text>9</div></div>"",""<div class = centerbox><div class = digit-span-text>2</div></div>"",""<div class = centerbox><div class = digit-span-text>3</div></div>"",""<div class = centerbox><div class = digit-span-text>4</div></div>"",""<div class = centerbox><div class = digit-span-text>2</div></div>""]","[-1]","none","[1000,1000,1000,1000,1000,1000,1000]","8400","0","test","8,5,9,2,3,4,2","7","","","","",""
"single-stim-button","93","677839","0.0-18.0-2.0","1008","digit-span","true","0","","12415","","","response","","","","","","12415","1000","test","8,5,9,2,3,4,2","7","SubmitButton","12415","2,4,3,2,9,5,8","reverse","true"
"html-keyboard-response","94","678842","0.0-18.0-3.0","1008","digit-span","true","0","","null","<div class = centerbox><div class = center-text>7 Digits</p></div>","null","test_intro","","","","","","","","","","","","","","",""
"poldrack-multi-stim-multi-response","95","688249","0.0-18.0-4.0","1008","digit-span","true","0","","[-1]","","","stim","","[""<div class = centerbox><div class = digit-span-text>4</div></div>"",""<div class = centerbox><div class = digit-span-text>5</div></div>"",""<div class = centerbox><div class = digit-span-text>7</div></div>"",""<div class = centerbox><div class = digit-span-text>9</div></div>"",""<div class = centerbox><div class = digit-span-text>2</div></div>"",""<div class = centerbox><div class = digit-span-text>8</div></div>"",""<div class = centerbox><div class = digit-span-text>1</div></div>""]","[-1]","none","[1000,1000,1000,1000,1000,1000,1000]","8400","0","test","4,5,7,9,2,8,1","7","","","","",""
"single-stim-button","96","699450","0.0-18.0-5.0","1008","digit-span","true","0","","11197","","","response","","","","","","11197","1000","test","4,5,7,9,2,8,1","7","SubmitButton","11197","1,8,2,9,7,5,4","reverse","true"
"html-keyboard-response","97","700453","0.0-19.0-0.0","1008","digit-span","true","0","","null","<div class = centerbox><div class = center-text>8 Digits</p></div>","null","test_intro","","","","","","","","","","","","","","",""
"poldrack-multi-stim-multi-response","98","711059","0.0-19.0-1.0","1008","digit-span","true","0","","[-1]","","","stim","","[""<div class = centerbox><div class = digit-span-text>6</div></div>"",""<div class = centerbox><div class = digit-span-text>9</div></div>"",""<div class = centerbox><div class = digit-span-text>1</div></div>"",""<div class = centerbox><div class = digit-span-text>6</div></div>"",""<div class = centerbox><div class = digit-span-text>3</div></div>"",""<div class = centerbox><div class = digit-span-text>2</div></div>"",""<div class = centerbox><div class = digit-span-text>5</div></div>"",""<div class = centerbox><div class = digit-span-text>8</div></div>""]","[-1]","none","[1000,1000,1000,1000,1000,1000,1000,1000]","9600","0","test","6,9,1,6,3,2,5,8","8","","","","",""
"single-stim-button","99","736022","0.0-19.0-2.0","1008","digit-span","true","0","","24960","","","response","","","","","","24960","1000","test","6,9,1,6,3,2,5,8","8","SubmitButton","24960","8,5,2,3,6,1,9,6","reverse","true"
"html-keyboard-response","100","737026","0.0-19.0-3.0","1008","digit-span","true","0","","null","<div class = centerbox><div class = center-text>8 Digits</p></div>","null","test_intro","","","","","","","","","","","","","","",""
"poldrack-multi-stim-multi-response","101","747633","0.0-19.0-4.0","1008","digit-span","true","0","","[-1]","","","stim","","[""<div class = centerbox><div class = digit-span-text>3</div></div>"",""<div class = centerbox><div class = digit-span-text>1</div></div>"",""<div class = centerbox><div class = digit-span-text>7</div></div>"",""<div class = centerbox><div class = digit-span-text>9</div></div>"",""<div class = centerbox><div class = digit-span-text>5</div></div>"",""<div class = centerbox><div class = digit-span-text>4</div></div>"",""<div class = centerbox><div class = digit-span-text>8</div></div>"",""<div class = centerbox><div class = digit-span-text>2</div></div>""]","[-1]","none","[1000,1000,1000,1000,1000,1000,1000,1000]","9600","0","test","3,1,7,9,5,4,8,2","8","","","","",""
"single-stim-button","102","763075","0.0-19.0-5.0","1008","digit-span","true","0","","15439","","","response","","","","","","15439","1000","test","3,1,7,9,5,4,8,2","8","SubmitButton","15439","2,8,4,5,9,7,1,3","reverse","true"
"image-keyboard-response","103","765821","0.0-20.0","1008","digit-span","true","0","","2741.9500000105472","img/trophy2.jpeg","13","end","","","","","","","","","","","","","","",""
