"trial_type","trial_index","time_elapsed","internal_node_id","subject","order","exp_id","full_screen","focus_shifts","success","rt","stimulus","key_press","trial_id","view_history","stimuli","key_presses","possible_responses","stim_durations","block_duration","timing_post_trial","exp_stage","sequence","num_digits","mouse_click","stim_duration","response","condition","correct"
"pavlovia","0","2407","0.0-0.0","1310","2","digit-span","false","0","","","","","","","","","","","","","","","","","","","",""
"fullscreen","1","4894","0.0-1.0","1310","2","digit-span","true","0","true","","","","","","","","","","","","","","","","","","",""
"html-keyboard-response","2","8997","0.0-2.0-0.0","1310","2","digit-span","true","0","","4098","<div class = centerbox><p class = center-block-text>Welcome to the number game! It will take less than 5 minutes. Press <strong>""Enter/Return""</strong> to begin.</p></div>","13","instruction","","","","","","","","","","","","","","",""
"instructions","3","14742","0.0-2.0-1.0","1310","2","digit-span","true","0","","5743","","","instruction","[{""page_index"":0,""viewing_time"":5743}]","","","","","","","","","","","","","",""
"instructions","4","18158","0.0-2.0-2.0","1310","2","digit-span","true","0","","2399","","","instruction","[{""page_index"":0,""viewing_time"":2399}]","","","","","","","","","","","","","",""
"html-keyboard-response","5","20172","0.0-3.0-0.0","1310","2","digit-span","true","0","","null","<div class = centerbox><div class = center-text>2 Digits</p></div>","null","test_intro","","","","","","","","","","","","","","",""
"poldrack-multi-stim-multi-response","6","23583","0.0-3.0-1.0","1310","2","digit-span","true","0","","[-1]","","","stim","","[""<div class = centerbox><div class = digit-span-text>2</div></div>"",""<div class = centerbox><div class = digit-span-text>9</div></div>""]","[-1]","none","[1000,1000]","2400","0","test","2,9","2","","","","",""
"single-stim-button","7","26097","0.0-3.0-2.0","1310","2","digit-span","true","0","","2512","","","response","","","","","","2512","1000","test","2,9","2","SubmitButton","2512","2,9","forward","true"
"html-keyboard-response","8","27111","0.0-3.0-3.0","1310","2","digit-span","true","0","","null","<div class = centerbox><div class = center-text>2 Digits</p></div>","null","test_intro","","","","","","","","","","","","","","",""
"poldrack-multi-stim-multi-response","9","30521","0.0-3.0-4.0","1310","2","digit-span","true","0","","[-1]","","","stim","","[""<div class = centerbox><div class = digit-span-text>4</div></div>"",""<div class = centerbox><div class = digit-span-text>6</div></div>""]","[-1]","none","[1000,1000]","2400","0","test","4,6","2","","","","",""
"single-stim-button","10","34432","0.0-3.0-5.0","1310","2","digit-span","true","0","","3909","","","response","","","","","","3909","1000","test","4,6","2","SubmitButton","3909","4,6","forward","true"
"html-keyboard-response","11","35451","0.0-4.0-0.0","1310","2","digit-span","true","0","","null","<div class = centerbox><div class = center-text>3 Digits</p></div>","null","test_intro","","","","","","","","","","","","","","",""
"poldrack-multi-stim-multi-response","12","40065","0.0-4.0-1.0","1310","2","digit-span","true","0","","[-1]","","","stim","","[""<div class = centerbox><div class = digit-span-text>3</div></div>"",""<div class = centerbox><div class = digit-span-text>8</div></div>"",""<div class = centerbox><div class = digit-span-text>6</div></div>""]","[-1]","none","[1000,1000,1000]","3600","0","test","3,8,6","3","","","","",""
"single-stim-button","13","42896","0.0-4.0-2.0","1310","2","digit-span","true","0","","2829","","","response","","","","","","2829","1000","test","3,8,6","3","SubmitButton","2829","3,8,6","forward","true"
"html-keyboard-response","14","43908","0.0-4.0-3.0","1310","2","digit-span","true","0","","null","<div class = centerbox><div class = center-text>3 Digits</p></div>","null","test_intro","","","","","","","","","","","","","","",""
"poldrack-multi-stim-multi-response","15","48540","0.0-4.0-4.0","1310","2","digit-span","true","0","","[-1]","","","stim","","[""<div class = centerbox><div class = digit-span-text>6</div></div>"",""<div class = centerbox><div class = digit-span-text>1</div></div>"",""<div class = centerbox><div class = digit-span-text>2</div></div>""]","[-1]","none","[1000,1000,1000]","3600","0","test","6,1,2","3","","","","",""
"single-stim-button","16","51568","0.0-4.0-5.0","1310","2","digit-span","true","0","","3026","","","response","","","","","","3026","1000","test","6,1,2","3","SubmitButton","3026","6,1,2","forward","true"
"html-keyboard-response","17","52587","0.0-5.0-0.0","1310","2","digit-span","true","0","","null","<div class = centerbox><div class = center-text>4 Digits</p></div>","null","test_intro","","","","","","","","","","","","","","",""
"poldrack-multi-stim-multi-response","18","58419","0.0-5.0-1.0","1310","2","digit-span","true","0","","[-1]","","","stim","","[""<div class = centerbox><div class = digit-span-text>3</div></div>"",""<div class = centerbox><div class = digit-span-text>4</div></div>"",""<div class = centerbox><div class = digit-span-text>1</div></div>"",""<div class = centerbox><div class = digit-span-text>7</div></div>""]","[-1]","none","[1000,1000,1000,1000]","4800","0","test","3,4,1,7","4","","","","",""
"single-stim-button","19","61838","0.0-5.0-2.0","1310","2","digit-span","true","0","","3418","","","response","","","","","","3418","1000","test","3,4,1,7","4","SubmitButton","3418","3,4,1,7","forward","true"
"html-keyboard-response","20","62844","0.0-5.0-3.0","1310","2","digit-span","true","0","","null","<div class = centerbox><div class = center-text>4 Digits</p></div>","null","test_intro","","","","","","","","","","","","","","",""
"poldrack-multi-stim-multi-response","21","68677","0.0-5.0-4.0","1310","2","digit-span","true","0","","[-1]","","","stim","","[""<div class = centerbox><div class = digit-span-text>6</div></div>"",""<div class = centerbox><div class = digit-span-text>1</div></div>"",""<div class = centerbox><div class = digit-span-text>5</div></div>"",""<div class = centerbox><div class = digit-span-text>8</div></div>""]","[-1]","none","[1000,1000,1000,1000]","4800","0","test","6,1,5,8","4","","","","",""
"single-stim-button","22","72135","0.0-5.0-5.0","1310","2","digit-span","true","0","","3455","","","response","","","","","","3455","1000","test","6,1,5,8","4","SubmitButton","3455","6,1,5,8","forward","true"
"html-keyboard-response","23","73145","0.0-6.0-0.0","1310","2","digit-span","true","0","","null","<div class = centerbox><div class = center-text>5 Digits</p></div>","null","test_intro","","","","","","","","","","","","","","",""
"poldrack-multi-stim-multi-response","24","80175","0.0-6.0-1.0","1310","2","digit-span","true","0","","[-1]","","","stim","","[""<div class = centerbox><div class = digit-span-text>8</div></div>"",""<div class = centerbox><div class = digit-span-text>4</div></div>"",""<div class = centerbox><div class = digit-span-text>2</div></div>"",""<div class = centerbox><div class = digit-span-text>3</div></div>"",""<div class = centerbox><div class = digit-span-text>9</div></div>""]","[-1]","none","[1000,1000,1000,1000,1000]","6000","0","test","8,4,2,3,9","5","","","","",""
"single-stim-button","25","84335","0.0-6.0-2.0","1310","2","digit-span","true","0","","4158","","","response","","","","","","4158","1000","test","8,4,2,3,9","5","SubmitButton","4158","8,4,2,3,9","forward","true"
"html-keyboard-response","26","85345","0.0-6.0-3.0","1310","2","digit-span","true","0","","null","<div class = centerbox><div class = center-text>5 Digits</p></div>","null","test_intro","","","","","","","","","","","","","","",""
"poldrack-multi-stim-multi-response","27","92375","0.0-6.0-4.0","1310","2","digit-span","true","0","","[-1]","","","stim","","[""<div class = centerbox><div class = digit-span-text>5</div></div>"",""<div class = centerbox><div class = digit-span-text>2</div></div>"",""<div class = centerbox><div class = digit-span-text>1</div></div>"",""<div class = centerbox><div class = digit-span-text>8</div></div>"",""<div class = centerbox><div class = digit-span-text>6</div></div>""]","[-1]","none","[1000,1000,1000,1000,1000]","6000","0","test","5,2,1,8,6","5","","","","",""
"single-stim-button","28","95768","0.0-6.0-5.0","1310","2","digit-span","true","0","","3390","","","response","","","","","","3390","1000","test","5,2,1,8,6","5","SubmitButton","3390","5,2,1,8,6","forward","true"
"html-keyboard-response","29","96776","0.0-7.0-0.0","1310","2","digit-span","true","0","","null","<div class = centerbox><div class = center-text>6 Digits</p></div>","null","test_intro","","","","","","","","","","","","","","",""
"poldrack-multi-stim-multi-response","30","105008","0.0-7.0-1.0","1310","2","digit-span","true","0","","[-1]","","","stim","","[""<div class = centerbox><div class = digit-span-text>3</div></div>"",""<div class = centerbox><div class = digit-span-text>8</div></div>"",""<div class = centerbox><div class = digit-span-text>9</div></div>"",""<div class = centerbox><div class = digit-span-text>1</div></div>"",""<div class = centerbox><div class = digit-span-text>7</div></div>"",""<div class = centerbox><div class = digit-span-text>4</div></div>""]","[-1]","none","[1000,1000,1000,1000,1000,1000]","7200","0","test","3,8,9,1,7,4","6","","","","",""
"single-stim-button","31","111103","0.0-7.0-2.0","1310","2","digit-span","true","0","","6094","","","response","","","","","","6094","1000","test","3,8,9,1,7,4","6","SubmitButton","6094","3,8,9,1,7,4","forward","true"
"html-keyboard-response","32","112108","0.0-7.0-3.0","1310","2","digit-span","true","0","","null","<div class = centerbox><div class = center-text>6 Digits</p></div>","null","test_intro","","","","","","","","","","","","","","",""
"poldrack-multi-stim-multi-response","33","120344","0.0-7.0-4.0","1310","2","digit-span","true","0","","[-1]","","","stim","","[""<div class = centerbox><div class = digit-span-text>7</div></div>"",""<div class = centerbox><div class = digit-span-text>9</div></div>"",""<div class = centerbox><div class = digit-span-text>6</div></div>"",""<div class = centerbox><div class = digit-span-text>4</div></div>"",""<div class = centerbox><div class = digit-span-text>8</div></div>"",""<div class = centerbox><div class = digit-span-text>3</div></div>""]","[-1]","none","[1000,1000,1000,1000,1000,1000]","7200","0","test","7,9,6,4,8,3","6","","","","",""
"single-stim-button","34","125784","0.0-7.0-5.0","1310","2","digit-span","true","0","","5438","","","response","","","","","","5438","1000","test","7,9,6,4,8,3","6","SubmitButton","5438","7,9,6,4,8,3","forward","true"
"html-keyboard-response","35","126792","0.0-8.0-0.0","1310","2","digit-span","true","0","","null","<div class = centerbox><div class = center-text>7 Digits</p></div>","null","test_intro","","","","","","","","","","","","","","",""
"poldrack-multi-stim-multi-response","36","136212","0.0-8.0-1.0","1310","2","digit-span","true","0","","[-1]","","","stim","","[""<div class = centerbox><div class = digit-span-text>5</div></div>"",""<div class = centerbox><div class = digit-span-text>1</div></div>"",""<div class = centerbox><div class = digit-span-text>7</div></div>"",""<div class = centerbox><div class = digit-span-text>4</div></div>"",""<div class = centerbox><div class = digit-span-text>2</div></div>"",""<div class = centerbox><div class = digit-span-text>3</div></div>"",""<div class = centerbox><div class = digit-span-text>8</div></div>""]","[-1]","none","[1000,1000,1000,1000,1000,1000,1000]","8400","0","test","5,1,7,4,2,3,8","7","","","","",""
"single-stim-button","37","141376","0.0-8.0-2.0","1310","2","digit-span","true","0","","5162","","","response","","","","","","5162","1000","test","5,1,7,4,2,3,8","7","SubmitButton","5162","5,7,1,4,2,3,8","forward","false"
"html-keyboard-response","38","142391","0.0-8.0-3.0","1310","2","digit-span","true","0","","null","<div class = centerbox><div class = center-text>7 Digits</p></div>","null","test_intro","","","","","","","","","","","","","","",""
"poldrack-multi-stim-multi-response","39","151823","0.0-8.0-4.0","1310","2","digit-span","true","0","","[-1]","","","stim","","[""<div class = centerbox><div class = digit-span-text>9</div></div>"",""<div class = centerbox><div class = digit-span-text>8</div></div>"",""<div class = centerbox><div class = digit-span-text>5</div></div>"",""<div class = centerbox><div class = digit-span-text>2</div></div>"",""<div class = centerbox><div class = digit-span-text>1</div></div>"",""<div class = centerbox><div class = digit-span-text>6</div></div>"",""<div class = centerbox><div class = digit-span-text>3</div></div>""]","[-1]","none","[1000,1000,1000,1000,1000,1000,1000]","8400","0","test","9,8,5,2,1,6,3","7","","","","",""
"single-stim-button","40","158047","0.0-8.0-5.0","1310","2","digit-span","true","0","","6222","","","response","","","","","","6222","1000","test","9,8,5,2,1,6,3","7","SubmitButton","6222","9,8,5,2,1,6,3","forward","true"
"html-keyboard-response","41","159061","0.0-9.0-0.0","1310","2","digit-span","true","0","","null","<div class = centerbox><div class = center-text>8 Digits</p></div>","null","test_intro","","","","","","","","","","","","","","",""
"poldrack-multi-stim-multi-response","42","169690","0.0-9.0-1.0","1310","2","digit-span","true","0","","[-1]","","","stim","","[""<div class = centerbox><div class = digit-span-text>1</div></div>"",""<div class = centerbox><div class = digit-span-text>6</div></div>"",""<div class = centerbox><div class = digit-span-text>4</div></div>"",""<div class = centerbox><div class = digit-span-text>5</div></div>"",""<div class = centerbox><div class = digit-span-text>9</div></div>"",""<div class = centerbox><div class = digit-span-text>7</div></div>"",""<div class = centerbox><div class = digit-span-text>6</div></div>"",""<div class = centerbox><div class = digit-span-text>3</div></div>""]","[-1]","none","[1000,1000,1000,1000,1000,1000,1000,1000]","9600","0","test","1,6,4,5,9,7,6,3","8","","","","",""
"single-stim-button","43","179255","0.0-9.0-2.0","1310","2","digit-span","true","0","","9563","","","response","","","","","","9563","1000","test","1,6,4,5,9,7,6,3","8","SubmitButton","9563","1,9,4,5,6,7,3","forward","false"
"html-keyboard-response","44","180261","0.0-9.0-3.0","1310","2","digit-span","true","0","","null","<div class = centerbox><div class = center-text>8 Digits</p></div>","null","test_intro","","","","","","","","","","","","","","",""
"poldrack-multi-stim-multi-response","45","190882","0.0-9.0-4.0","1310","2","digit-span","true","0","","[-1]","","","stim","","[""<div class = centerbox><div class = digit-span-text>2</div></div>"",""<div class = centerbox><div class = digit-span-text>9</div></div>"",""<div class = centerbox><div class = digit-span-text>7</div></div>"",""<div class = centerbox><div class = digit-span-text>6</div></div>"",""<div class = centerbox><div class = digit-span-text>3</div></div>"",""<div class = centerbox><div class = digit-span-text>1</div></div>"",""<div class = centerbox><div class = digit-span-text>5</div></div>"",""<div class = centerbox><div class = digit-span-text>4</div></div>""]","[-1]","none","[1000,1000,1000,1000,1000,1000,1000,1000]","9600","0","test","2,9,7,6,3,1,5,4","8","","","","",""
"single-stim-button","46","197785","0.0-9.0-5.0","1310","2","digit-span","true","0","","6900","","","response","","","","","","6900","1000","test","2,9,7,6,3,1,5,4","8","SubmitButton","6900","2,1,9,7,6,5,3,1","forward","false"
"html-keyboard-response","47","204876","0.0-11.0","1310","2","digit-span","true","0","","7087","<div class = centerbox><p class = block-text>Now, you will see some numbers, but this time you will enter them <strong>backward</strong>.<br><br>For example, you see <strong>“1—5”</strong>, and you will enter <strong>“5—1”</strong>.<br><br><br>Press <strong>""Enter/Return""</strong> to begin.</p></div>","13","start_reverse","","","","","","","","","","","","","","",""
"html-keyboard-response","48","205885","0.0-12.0-0.0","1310","2","digit-span","true","0","","null","<div class = centerbox><div class = center-text>2 Digits</p></div>","null","test_intro","","","","","","","","","","","","","","",""
"poldrack-multi-stim-multi-response","49","209318","0.0-12.0-1.0","1310","2","digit-span","true","0","","[-1]","","","stim","","[""<div class = centerbox><div class = digit-span-text>8</div></div>"",""<div class = centerbox><div class = digit-span-text>2</div></div>""]","[-1]","none","[1000,1000]","2400","0","test","8,2","2","","","","",""
"single-stim-button","50","211550","0.0-12.0-2.0","1310","2","digit-span","true","0","","2230","","","response","","","","","","2230","1000","test","8,2","2","SubmitButton","2230","2,8","practice","true"
"html-keyboard-response","51","221568","0.0-12.0-3.0","1310","2","digit-span","true","0","","null","<div class = centerbox><div class = center-block-text><span style=""color:green"">Correct!</span></div></div>","null","feedback","","","","","","","","","","","","","","",""
"html-keyboard-response","52","222583","0.0-12.0-4.0","1310","2","digit-span","true","0","","null","<div class = centerbox><div class = center-text>2 Digits</p></div>","null","test_intro","","","","","","","","","","","","","","",""
"poldrack-multi-stim-multi-response","53","226013","0.0-12.0-5.0","1310","2","digit-span","true","0","","[-1]","","","stim","","[""<div class = centerbox><div class = digit-span-text>5</div></div>"",""<div class = centerbox><div class = digit-span-text>6</div></div>""]","[-1]","none","[1000,1000]","2400","0","test","5,6","2","","","","",""
"single-stim-button","54","228095","0.0-12.0-6.0","1310","2","digit-span","true","0","","2080","","","response","","","","","","2080","1000","test","5,6","2","SubmitButton","2080","6,5","practice","true"
"html-keyboard-response","55","229099","0.0-13.0-0.0","1310","2","digit-span","true","0","","null","<div class = centerbox><div class = center-text>2 Digits</p></div>","null","test_intro","","","","","","","","","","","","","","",""
"poldrack-multi-stim-multi-response","56","232530","0.0-13.0-1.0","1310","2","digit-span","true","0","","[-1]","","","stim","","[""<div class = centerbox><div class = digit-span-text>2</div></div>"",""<div class = centerbox><div class = digit-span-text>5</div></div>""]","[-1]","none","[1000,1000]","2400","0","test","2,5","2","","","","",""
"single-stim-button","57","234489","0.0-13.0-2.0","1310","2","digit-span","true","0","","1957","","","response","","","","","","1957","1000","test","2,5","2","SubmitButton","1957","5,2","reverse","true"
"html-keyboard-response","58","235502","0.0-13.0-3.0","1310","2","digit-span","true","0","","null","<div class = centerbox><div class = center-text>2 Digits</p></div>","null","test_intro","","","","","","","","","","","","","","",""
"poldrack-multi-stim-multi-response","59","238934","0.0-13.0-4.0","1310","2","digit-span","true","0","","[-1]","","","stim","","[""<div class = centerbox><div class = digit-span-text>6</div></div>"",""<div class = centerbox><div class = digit-span-text>3</div></div>""]","[-1]","none","[1000,1000]","2400","0","test","6,3","2","","","","",""
"single-stim-button","60","241550","0.0-13.0-5.0","1310","2","digit-span","true","0","","2616","","","response","","","","","","2616","1000","test","6,3","2","SubmitButton","2616","3,6","reverse","true"
"html-keyboard-response","61","242557","0.0-14.0-0.0","1310","2","digit-span","true","0","","null","<div class = centerbox><div class = center-text>3 Digits</p></div>","null","test_intro","","","","","","","","","","","","","","",""
"poldrack-multi-stim-multi-response","62","247187","0.0-14.0-1.0","1310","2","digit-span","true","0","","[-1]","","","stim","","[""<div class = centerbox><div class = digit-span-text>5</div></div>"",""<div class = centerbox><div class = digit-span-text>7</div></div>"",""<div class = centerbox><div class = digit-span-text>4</div></div>""]","[-1]","none","[1000,1000,1000]","3600","0","test","5,7,4","3","","","","",""
"single-stim-button","63","252631","0.0-14.0-2.0","1310","2","digit-span","true","0","","5442","","","response","","","","","","5442","1000","test","5,7,4","3","SubmitButton","5442","4,7,5","reverse","true"
"html-keyboard-response","64","253635","0.0-14.0-3.0","1310","2","digit-span","true","0","","null","<div class = centerbox><div class = center-text>3 Digits</p></div>","null","test_intro","","","","","","","","","","","","","","",""
"poldrack-multi-stim-multi-response","65","258272","0.0-14.0-4.0","1310","2","digit-span","true","0","","[-1]","","","stim","","[""<div class = centerbox><div class = digit-span-text>2</div></div>"",""<div class = centerbox><div class = digit-span-text>5</div></div>"",""<div class = centerbox><div class = digit-span-text>9</div></div>""]","[-1]","none","[1000,1000,1000]","3600","0","test","2,5,9","3","","","","",""
"single-stim-button","66","261247","0.0-14.0-5.0","1310","2","digit-span","true","0","","2973","","","response","","","","","","2973","1000","test","2,5,9","3","SubmitButton","2973","9,5,2","reverse","true"
"html-keyboard-response","67","262255","0.0-15.0-0.0","1310","2","digit-span","true","0","","null","<div class = centerbox><div class = center-text>4 Digits</p></div>","null","test_intro","","","","","","","","","","","","","","",""
"poldrack-multi-stim-multi-response","68","268088","0.0-15.0-1.0","1310","2","digit-span","true","0","","[-1]","","","stim","","[""<div class = centerbox><div class = digit-span-text>7</div></div>"",""<div class = centerbox><div class = digit-span-text>2</div></div>"",""<div class = centerbox><div class = digit-span-text>9</div></div>"",""<div class = centerbox><div class = digit-span-text>6</div></div>""]","[-1]","none","[1000,1000,1000,1000]","4800","0","test","7,2,9,6","4","","","","",""
"single-stim-button","69","275476","0.0-15.0-2.0","1310","2","digit-span","true","0","","7385","","","response","","","","","","7385","1000","test","7,2,9,6","4","SubmitButton","7385","6,9,2,7","reverse","true"
"html-keyboard-response","70","276490","0.0-15.0-3.0","1310","2","digit-span","true","0","","null","<div class = centerbox><div class = center-text>4 Digits</p></div>","null","test_intro","","","","","","","","","","","","","","",""
"poldrack-multi-stim-multi-response","71","282307","0.0-15.0-4.0","1310","2","digit-span","true","0","","[-1]","","","stim","","[""<div class = centerbox><div class = digit-span-text>8</div></div>"",""<div class = centerbox><div class = digit-span-text>4</div></div>"",""<div class = centerbox><div class = digit-span-text>9</div></div>"",""<div class = centerbox><div class = digit-span-text>3</div></div>""]","[-1]","none","[1000,1000,1000,1000]","4800","0","test","8,4,9,3","4","","","","",""
"single-stim-button","72","288176","0.0-15.0-5.0","1310","2","digit-span","true","0","","5867","","","response","","","","","","5867","1000","test","8,4,9,3","4","SubmitButton","5867","3,9,4,8","reverse","true"
"html-keyboard-response","73","289194","0.0-16.0-0.0","1310","2","digit-span","true","0","","null","<div class = centerbox><div class = center-text>5 Digits</p></div>","null","test_intro","","","","","","","","","","","","","","",""
"poldrack-multi-stim-multi-response","74","296211","0.0-16.0-1.0","1310","2","digit-span","true","0","","[-1]","","","stim","","[""<div class = centerbox><div class = digit-span-text>4</div></div>"",""<div class = centerbox><div class = digit-span-text>1</div></div>"",""<div class = centerbox><div class = digit-span-text>3</div></div>"",""<div class = centerbox><div class = digit-span-text>5</div></div>"",""<div class = centerbox><div class = digit-span-text>7</div></div>""]","[-1]","none","[1000,1000,1000,1000,1000]","6000","0","test","4,1,3,5,7","5","","","","",""
"single-stim-button","75","305848","0.0-16.0-2.0","1310","2","digit-span","true","0","","9635","","","response","","","","","","9635","1000","test","4,1,3,5,7","5","SubmitButton","9635","7,5,3,1,4","reverse","true"
"html-keyboard-response","76","306865","0.0-16.0-3.0","1310","2","digit-span","true","0","","null","<div class = centerbox><div class = center-text>5 Digits</p></div>","null","test_intro","","","","","","","","","","","","","","",""
"poldrack-multi-stim-multi-response","77","313895","0.0-16.0-4.0","1310","2","digit-span","true","0","","[-1]","","","stim","","[""<div class = centerbox><div class = digit-span-text>9</div></div>"",""<div class = centerbox><div class = digit-span-text>7</div></div>"",""<div class = centerbox><div class = digit-span-text>8</div></div>"",""<div class = centerbox><div class = digit-span-text>5</div></div>"",""<div class = centerbox><div class = digit-span-text>2</div></div>""]","[-1]","none","[1000,1000,1000,1000,1000]","6000","0","test","9,7,8,5,2","5","","","","",""
"single-stim-button","78","321863","0.0-16.0-5.0","1310","2","digit-span","true","0","","7966","","","response","","","","","","7966","1000","test","9,7,8,5,2","5","SubmitButton","7966","2,5,8,7,9","reverse","true"
"html-keyboard-response","79","322879","0.0-17.0-0.0","1310","2","digit-span","true","0","","null","<div class = centerbox><div class = center-text>6 Digits</p></div>","null","test_intro","","","","","","","","","","","","","","",""
"poldrack-multi-stim-multi-response","80","331096","0.0-17.0-1.0","1310","2","digit-span","true","0","","[-1]","","","stim","","[""<div class = centerbox><div class = digit-span-text>1</div></div>"",""<div class = centerbox><div class = digit-span-text>6</div></div>"",""<div class = centerbox><div class = digit-span-text>5</div></div>"",""<div class = centerbox><div class = digit-span-text>2</div></div>"",""<div class = centerbox><div class = digit-span-text>9</div></div>"",""<div class = centerbox><div class = digit-span-text>8</div></div>""]","[-1]","none","[1000,1000,1000,1000,1000,1000]","7200","0","test","1,6,5,2,9,8","6","","","","",""
"single-stim-button","81","344119","0.0-17.0-2.0","1310","2","digit-span","true","0","","13021","","","response","","","","","","13021","1000","test","1,6,5,2,9,8","6","SubmitButton","13021","8,9,2,6,1","reverse","false"
"html-keyboard-response","82","345127","0.0-17.0-3.0","1310","2","digit-span","true","0","","null","<div class = centerbox><div class = center-text>6 Digits</p></div>","null","test_intro","","","","","","","","","","","","","","",""
"poldrack-multi-stim-multi-response","83","353365","0.0-17.0-4.0","1310","2","digit-span","true","0","","[-1]","","","stim","","[""<div class = centerbox><div class = digit-span-text>3</div></div>"",""<div class = centerbox><div class = digit-span-text>6</div></div>"",""<div class = centerbox><div class = digit-span-text>7</div></div>"",""<div class = centerbox><div class = digit-span-text>1</div></div>"",""<div class = centerbox><div class = digit-span-text>9</div></div>"",""<div class = centerbox><div class = digit-span-text>4</div></div>""]","[-1]","none","[1000,1000,1000,1000,1000,1000]","7200","0","test","3,6,7,1,9,4","6","","","","",""
"single-stim-button","84","360286","0.0-17.0-5.0","1310","2","digit-span","true","0","","6919","","","response","","","","","","6919","1000","test","3,6,7,1,9,4","6","SubmitButton","6919","4,9,1,7,6,3","reverse","true"
"html-keyboard-response","85","361296","0.0-18.0-0.0","1310","2","digit-span","true","0","","null","<div class = centerbox><div class = center-text>7 Digits</p></div>","null","test_intro","","","","","","","","","","","","","","",""
"poldrack-multi-stim-multi-response","86","370726","0.0-18.0-1.0","1310","2","digit-span","true","0","","[-1]","","","stim","","[""<div class = centerbox><div class = digit-span-text>8</div></div>"",""<div class = centerbox><div class = digit-span-text>5</div></div>"",""<div class = centerbox><div class = digit-span-text>9</div></div>"",""<div class = centerbox><div class = digit-span-text>2</div></div>"",""<div class = centerbox><div class = digit-span-text>3</div></div>"",""<div class = centerbox><div class = digit-span-text>4</div></div>"",""<div class = centerbox><div class = digit-span-text>2</div></div>""]","[-1]","none","[1000,1000,1000,1000,1000,1000,1000]","8400","0","test","8,5,9,2,3,4,2","7","","","","",""
"single-stim-button","87","384535","0.0-18.0-2.0","1310","2","digit-span","true","0","","13807","","","response","","","","","","13807","1000","test","8,5,9,2,3,4,2","7","SubmitButton","13807","2,4,3,2,9,5,8","reverse","true"
"html-keyboard-response","88","385543","0.0-18.0-3.0","1310","2","digit-span","true","0","","null","<div class = centerbox><div class = center-text>7 Digits</p></div>","null","test_intro","","","","","","","","","","","","","","",""
"poldrack-multi-stim-multi-response","89","394980","0.0-18.0-4.0","1310","2","digit-span","true","0","","[-1]","","","stim","","[""<div class = centerbox><div class = digit-span-text>4</div></div>"",""<div class = centerbox><div class = digit-span-text>5</div></div>"",""<div class = centerbox><div class = digit-span-text>7</div></div>"",""<div class = centerbox><div class = digit-span-text>9</div></div>"",""<div class = centerbox><div class = digit-span-text>2</div></div>"",""<div class = centerbox><div class = digit-span-text>8</div></div>"",""<div class = centerbox><div class = digit-span-text>1</div></div>""]","[-1]","none","[1000,1000,1000,1000,1000,1000,1000]","8400","0","test","4,5,7,9,2,8,1","7","","","","",""
"single-stim-button","90","403511","0.0-18.0-5.0","1310","2","digit-span","true","0","","8529","","","response","","","","","","8529","1000","test","4,5,7,9,2,8,1","7","SubmitButton","8529","1,8,2,5,3,6","reverse","false"
"html-keyboard-response","91","404527","0.0-19.0-0.0","1310","2","digit-span","true","0","","null","<div class = centerbox><div class = center-text>8 Digits</p></div>","null","test_intro","","","","","","","","","","","","","","",""
"poldrack-multi-stim-multi-response","92","415146","0.0-19.0-1.0","1310","2","digit-span","true","0","","[-1]","","","stim","","[""<div class = centerbox><div class = digit-span-text>6</div></div>"",""<div class = centerbox><div class = digit-span-text>9</div></div>"",""<div class = centerbox><div class = digit-span-text>1</div></div>"",""<div class = centerbox><div class = digit-span-text>6</div></div>"",""<div class = centerbox><div class = digit-span-text>3</div></div>"",""<div class = centerbox><div class = digit-span-text>2</div></div>"",""<div class = centerbox><div class = digit-span-text>5</div></div>"",""<div class = centerbox><div class = digit-span-text>8</div></div>""]","[-1]","none","[1000,1000,1000,1000,1000,1000,1000,1000]","9600","0","test","6,9,1,6,3,2,5,8","8","","","","",""
"single-stim-button","93","425785","0.0-19.0-2.0","1310","2","digit-span","true","0","","10636","","","response","","","","","","10636","1000","test","6,9,1,6,3,2,5,8","8","SubmitButton","10636","8,5,2,3,6,8,1,9","reverse","false"
"html-keyboard-response","94","426800","0.0-19.0-3.0","1310","2","digit-span","true","0","","null","<div class = centerbox><div class = center-text>8 Digits</p></div>","null","test_intro","","","","","","","","","","","","","","",""
"poldrack-multi-stim-multi-response","95","437431","0.0-19.0-4.0","1310","2","digit-span","true","0","","[-1]","","","stim","","[""<div class = centerbox><div class = digit-span-text>3</div></div>"",""<div class = centerbox><div class = digit-span-text>1</div></div>"",""<div class = centerbox><div class = digit-span-text>7</div></div>"",""<div class = centerbox><div class = digit-span-text>9</div></div>"",""<div class = centerbox><div class = digit-span-text>5</div></div>"",""<div class = centerbox><div class = digit-span-text>4</div></div>"",""<div class = centerbox><div class = digit-span-text>8</div></div>"",""<div class = centerbox><div class = digit-span-text>2</div></div>""]","[-1]","none","[1000,1000,1000,1000,1000,1000,1000,1000]","9600","0","test","3,1,7,9,5,4,8,2","8","","","","",""
"single-stim-button","96","449919","0.0-19.0-5.0","1310","2","digit-span","true","0","","12487","","","response","","","","","","12487","1000","test","3,1,7,9,5,4,8,2","8","SubmitButton","12487","2,8,4,5,2,1,9,3","reverse","false"
"image-keyboard-response","97","452076","0.0-20.0","1310","2","digit-span","true","0","","2152","img/trophy2.jpeg","13","end","","","","","","","","","","","","","","",""
