"trial_type","trial_index","time_elapsed","internal_node_id","subject","order","exp_id","full_screen","focus_shifts","success","rt","stimulus","key_press","trial_id","view_history","stimuli","key_presses","possible_responses","stim_durations","block_duration","timing_post_trial","exp_stage","sequence","num_digits","mouse_click","stim_duration","response","condition","correct"
"pavlovia","0","2538","0.0-0.0","1329","1","digit-span","true","0","","","","","","","","","","","","","","","","","","","",""
"fullscreen","1","6584","0.0-1.0","1329","1","digit-span","true","0","true","","","","","","","","","","","","","","","","","","",""
"html-keyboard-response","2","9933","0.0-2.0-0.0","1329","1","digit-span","true","0","","3345.9000000059605","<div class = centerbox><p class = center-block-text>Welcome to the number game! It will take less than 5 minutes. Press <strong>""Enter/Return""</strong> to begin.</p></div>","13","instruction","","","","","","","","","","","","","","",""
"instructions","3","12616","0.0-2.0-1.0","1329","1","digit-span","true","0","","2681.699999988079","","","instruction","[{""page_index"":0,""viewing_time"":2681.0999999940395}]","","","","","","","","","","","","","",""
"instructions","4","28390","0.0-2.0-2.0","1329","1","digit-span","true","0","","14758.59999999404","","","instruction","[{""page_index"":0,""viewing_time"":14758.199999988079}]","","","","","","","","","","","","","",""
"html-keyboard-response","5","30421","0.0-3.0-0.0","1329","1","digit-span","true","0","","null","<div class = centerbox><div class = center-text>2 Digits</p></div>","null","test_intro","","","","","","","","","","","","","","",""
"poldrack-multi-stim-multi-response","6","33831","0.0-3.0-1.0","1329","1","digit-span","true","0","","[-1]","","","stim","","[""<div class = centerbox><div class = digit-span-text>2</div></div>"",""<div class = centerbox><div class = digit-span-text>9</div></div>""]","[-1]","none","[1000,1000]","2400","0","test","2,9","2","","","","",""
"single-stim-button","7","38357","0.0-3.0-2.0","1329","1","digit-span","true","0","","4522","","","response","","","","","","4522","1000","test","2,9","2","SubmitButton","4522","2,9","forward","true"
"html-keyboard-response","8","39360","0.0-3.0-3.0","1329","1","digit-span","true","0","","null","<div class = centerbox><div class = center-text>2 Digits</p></div>","null","test_intro","","","","","","","","","","","","","","",""
"poldrack-multi-stim-multi-response","9","42764","0.0-3.0-4.0","1329","1","digit-span","true","0","","[-1]","","","stim","","[""<div class = centerbox><div class = digit-span-text>4</div></div>"",""<div class = centerbox><div class = digit-span-text>6</div></div>""]","[-1]","none","[1000,1000]","2400","0","test","4,6","2","","","","",""
"single-stim-button","10","44672","0.0-3.0-5.0","1329","1","digit-span","true","0","","1906","","","response","","","","","","1906","1000","test","4,6","2","SubmitButton","1906","4,6","forward","true"
"html-keyboard-response","11","45674","0.0-4.0-0.0","1329","1","digit-span","true","0","","null","<div class = centerbox><div class = center-text>3 Digits</p></div>","null","test_intro","","","","","","","","","","","","","","",""
"poldrack-multi-stim-multi-response","12","50279","0.0-4.0-1.0","1329","1","digit-span","true","0","","[-1]","","","stim","","[""<div class = centerbox><div class = digit-span-text>3</div></div>"",""<div class = centerbox><div class = digit-span-text>8</div></div>"",""<div class = centerbox><div class = digit-span-text>6</div></div>""]","[-1]","none","[1000,1000,1000]","3600","0","test","3,8,6","3","","","","",""
"single-stim-button","13","52826","0.0-4.0-2.0","1329","1","digit-span","true","0","","2545","","","response","","","","","","2545","1000","test","3,8,6","3","SubmitButton","2545","3,8,6","forward","true"
"html-keyboard-response","14","53828","0.0-4.0-3.0","1329","1","digit-span","true","0","","null","<div class = centerbox><div class = center-text>3 Digits</p></div>","null","test_intro","","","","","","","","","","","","","","",""
"poldrack-multi-stim-multi-response","15","58432","0.0-4.0-4.0","1329","1","digit-span","true","0","","[-1]","","","stim","","[""<div class = centerbox><div class = digit-span-text>6</div></div>"",""<div class = centerbox><div class = digit-span-text>1</div></div>"",""<div class = centerbox><div class = digit-span-text>2</div></div>""]","[-1]","none","[1000,1000,1000]","3600","0","test","6,1,2","3","","","","",""
"single-stim-button","16","61361","0.0-4.0-5.0","1329","1","digit-span","true","0","","2927","","","response","","","","","","2927","1000","test","6,1,2","3","SubmitButton","2927","6,1,2","forward","true"
"html-keyboard-response","17","62364","0.0-5.0-0.0","1329","1","digit-span","true","0","","null","<div class = centerbox><div class = center-text>4 Digits</p></div>","null","test_intro","","","","","","","","","","","","","","",""
"poldrack-multi-stim-multi-response","18","68170","0.0-5.0-1.0","1329","1","digit-span","true","0","","[-1]","","","stim","","[""<div class = centerbox><div class = digit-span-text>3</div></div>"",""<div class = centerbox><div class = digit-span-text>4</div></div>"",""<div class = centerbox><div class = digit-span-text>1</div></div>"",""<div class = centerbox><div class = digit-span-text>7</div></div>""]","[-1]","none","[1000,1000,1000,1000]","4800","0","test","3,4,1,7","4","","","","",""
"single-stim-button","19","71528","0.0-5.0-2.0","1329","1","digit-span","true","0","","3356","","","response","","","","","","3356","1000","test","3,4,1,7","4","SubmitButton","3356","3,4,1,7","forward","true"
"html-keyboard-response","20","72530","0.0-5.0-3.0","1329","1","digit-span","true","0","","null","<div class = centerbox><div class = center-text>4 Digits</p></div>","null","test_intro","","","","","","","","","","","","","","",""
"poldrack-multi-stim-multi-response","21","78335","0.0-5.0-4.0","1329","1","digit-span","true","0","","[-1]","","","stim","","[""<div class = centerbox><div class = digit-span-text>6</div></div>"",""<div class = centerbox><div class = digit-span-text>1</div></div>"",""<div class = centerbox><div class = digit-span-text>5</div></div>"",""<div class = centerbox><div class = digit-span-text>8</div></div>""]","[-1]","none","[1000,1000,1000,1000]","4800","0","test","6,1,5,8","4","","","","",""
"single-stim-button","22","81188","0.0-5.0-5.0","1329","1","digit-span","true","0","","2851","","","response","","","","","","2851","1000","test","6,1,5,8","4","SubmitButton","2851","6,1,5,8","forward","true"
"html-keyboard-response","23","82190","0.0-6.0-0.0","1329","1","digit-span","true","0","","null","<div class = centerbox><div class = center-text>5 Digits</p></div>","null","test_intro","","","","","","","","","","","","","","",""
"poldrack-multi-stim-multi-response","24","89195","0.0-6.0-1.0","1329","1","digit-span","true","0","","[-1]","","","stim","","[""<div class = centerbox><div class = digit-span-text>8</div></div>"",""<div class = centerbox><div class = digit-span-text>4</div></div>"",""<div class = centerbox><div class = digit-span-text>2</div></div>"",""<div class = centerbox><div class = digit-span-text>3</div></div>"",""<div class = centerbox><div class = digit-span-text>9</div></div>""]","[-1]","none","[1000,1000,1000,1000,1000]","6000","0","test","8,4,2,3,9","5","","","","",""
"single-stim-button","25","93354","0.0-6.0-2.0","1329","1","digit-span","true","0","","4155","","","response","","","","","","4155","1000","test","8,4,2,3,9","5","SubmitButton","4155","8,4,2,3,9","forward","true"
"html-keyboard-response","26","94357","0.0-6.0-3.0","1329","1","digit-span","true","0","","null","<div class = centerbox><div class = center-text>5 Digits</p></div>","null","test_intro","","","","","","","","","","","","","","",""
"poldrack-multi-stim-multi-response","27","101362","0.0-6.0-4.0","1329","1","digit-span","true","0","","[-1]","","","stim","","[""<div class = centerbox><div class = digit-span-text>5</div></div>"",""<div class = centerbox><div class = digit-span-text>2</div></div>"",""<div class = centerbox><div class = digit-span-text>1</div></div>"",""<div class = centerbox><div class = digit-span-text>8</div></div>"",""<div class = centerbox><div class = digit-span-text>6</div></div>""]","[-1]","none","[1000,1000,1000,1000,1000]","6000","0","test","5,2,1,8,6","5","","","","",""
"single-stim-button","28","106243","0.0-6.0-5.0","1329","1","digit-span","true","0","","4879","","","response","","","","","","4879","1000","test","5,2,1,8,6","5","SubmitButton","4879","5,2,1,8,6","forward","true"
"html-keyboard-response","29","107246","0.0-7.0-0.0","1329","1","digit-span","true","0","","null","<div class = centerbox><div class = center-text>6 Digits</p></div>","null","test_intro","","","","","","","","","","","","","","",""
"poldrack-multi-stim-multi-response","30","115451","0.0-7.0-1.0","1329","1","digit-span","true","0","","[-1]","","","stim","","[""<div class = centerbox><div class = digit-span-text>3</div></div>"",""<div class = centerbox><div class = digit-span-text>8</div></div>"",""<div class = centerbox><div class = digit-span-text>9</div></div>"",""<div class = centerbox><div class = digit-span-text>1</div></div>"",""<div class = centerbox><div class = digit-span-text>7</div></div>"",""<div class = centerbox><div class = digit-span-text>4</div></div>""]","[-1]","none","[1000,1000,1000,1000,1000,1000]","7200","0","test","3,8,9,1,7,4","6","","","","",""
"single-stim-button","31","120351","0.0-7.0-2.0","1329","1","digit-span","true","0","","4897","","","response","","","","","","4897","1000","test","3,8,9,1,7,4","6","SubmitButton","4897","3,8,9,1,7,4","forward","true"
"html-keyboard-response","32","121355","0.0-7.0-3.0","1329","1","digit-span","true","0","","null","<div class = centerbox><div class = center-text>6 Digits</p></div>","null","test_intro","","","","","","","","","","","","","","",""
"poldrack-multi-stim-multi-response","33","129559","0.0-7.0-4.0","1329","1","digit-span","true","0","","[-1]","","","stim","","[""<div class = centerbox><div class = digit-span-text>7</div></div>"",""<div class = centerbox><div class = digit-span-text>9</div></div>"",""<div class = centerbox><div class = digit-span-text>6</div></div>"",""<div class = centerbox><div class = digit-span-text>4</div></div>"",""<div class = centerbox><div class = digit-span-text>8</div></div>"",""<div class = centerbox><div class = digit-span-text>3</div></div>""]","[-1]","none","[1000,1000,1000,1000,1000,1000]","7200","0","test","7,9,6,4,8,3","6","","","","",""
"single-stim-button","34","134536","0.0-7.0-5.0","1329","1","digit-span","true","0","","4975","","","response","","","","","","4975","1000","test","7,9,6,4,8,3","6","SubmitButton","4975","7,9,6,4,8,3","forward","true"
"html-keyboard-response","35","135540","0.0-8.0-0.0","1329","1","digit-span","true","0","","null","<div class = centerbox><div class = center-text>7 Digits</p></div>","null","test_intro","","","","","","","","","","","","","","",""
"poldrack-multi-stim-multi-response","36","144944","0.0-8.0-1.0","1329","1","digit-span","true","0","","[-1]","","","stim","","[""<div class = centerbox><div class = digit-span-text>5</div></div>"",""<div class = centerbox><div class = digit-span-text>1</div></div>"",""<div class = centerbox><div class = digit-span-text>7</div></div>"",""<div class = centerbox><div class = digit-span-text>4</div></div>"",""<div class = centerbox><div class = digit-span-text>2</div></div>"",""<div class = centerbox><div class = digit-span-text>3</div></div>"",""<div class = centerbox><div class = digit-span-text>8</div></div>""]","[-1]","none","[1000,1000,1000,1000,1000,1000,1000]","8400","0","test","5,1,7,4,2,3,8","7","","","","",""
"single-stim-button","37","152166","0.0-8.0-2.0","1329","1","digit-span","true","0","","7220","","","response","","","","","","7220","1000","test","5,1,7,4,2,3,8","7","SubmitButton","7220","5,1,7,4,2,3,8","forward","true"
"html-keyboard-response","38","153169","0.0-8.0-3.0","1329","1","digit-span","true","0","","null","<div class = centerbox><div class = center-text>7 Digits</p></div>","null","test_intro","","","","","","","","","","","","","","",""
"poldrack-multi-stim-multi-response","39","162573","0.0-8.0-4.0","1329","1","digit-span","true","0","","[-1]","","","stim","","[""<div class = centerbox><div class = digit-span-text>9</div></div>"",""<div class = centerbox><div class = digit-span-text>8</div></div>"",""<div class = centerbox><div class = digit-span-text>5</div></div>"",""<div class = centerbox><div class = digit-span-text>2</div></div>"",""<div class = centerbox><div class = digit-span-text>1</div></div>"",""<div class = centerbox><div class = digit-span-text>6</div></div>"",""<div class = centerbox><div class = digit-span-text>3</div></div>""]","[-1]","none","[1000,1000,1000,1000,1000,1000,1000]","8400","0","test","9,8,5,2,1,6,3","7","","","","",""
"single-stim-button","40","168294","0.0-8.0-5.0","1329","1","digit-span","true","0","","5718","","","response","","","","","","5718","1000","test","9,8,5,2,1,6,3","7","SubmitButton","5718","9,8,5,2,1,6,3","forward","true"
"html-keyboard-response","41","169299","0.0-9.0-0.0","1329","1","digit-span","true","0","","null","<div class = centerbox><div class = center-text>8 Digits</p></div>","null","test_intro","","","","","","","","","","","","","","",""
"poldrack-multi-stim-multi-response","42","179902","0.0-9.0-1.0","1329","1","digit-span","true","0","","[-1]","","","stim","","[""<div class = centerbox><div class = digit-span-text>1</div></div>"",""<div class = centerbox><div class = digit-span-text>6</div></div>"",""<div class = centerbox><div class = digit-span-text>4</div></div>"",""<div class = centerbox><div class = digit-span-text>5</div></div>"",""<div class = centerbox><div class = digit-span-text>9</div></div>"",""<div class = centerbox><div class = digit-span-text>7</div></div>"",""<div class = centerbox><div class = digit-span-text>6</div></div>"",""<div class = centerbox><div class = digit-span-text>3</div></div>""]","[-1]","none","[1000,1000,1000,1000,1000,1000,1000,1000]","9600","0","test","1,6,4,5,9,7,6,3","8","","","","",""
"single-stim-button","43","185739","0.0-9.0-2.0","1329","1","digit-span","true","0","","5835","","","response","","","","","","5835","1000","test","1,6,4,5,9,7,6,3","8","SubmitButton","5835","1,6,4,5,9,7,6,3","forward","true"
"html-keyboard-response","44","186744","0.0-9.0-3.0","1329","1","digit-span","true","0","","null","<div class = centerbox><div class = center-text>8 Digits</p></div>","null","test_intro","","","","","","","","","","","","","","",""
"poldrack-multi-stim-multi-response","45","197348","0.0-9.0-4.0","1329","1","digit-span","true","0","","[-1]","","","stim","","[""<div class = centerbox><div class = digit-span-text>2</div></div>"",""<div class = centerbox><div class = digit-span-text>9</div></div>"",""<div class = centerbox><div class = digit-span-text>7</div></div>"",""<div class = centerbox><div class = digit-span-text>6</div></div>"",""<div class = centerbox><div class = digit-span-text>3</div></div>"",""<div class = centerbox><div class = digit-span-text>1</div></div>"",""<div class = centerbox><div class = digit-span-text>5</div></div>"",""<div class = centerbox><div class = digit-span-text>4</div></div>""]","[-1]","none","[1000,1000,1000,1000,1000,1000,1000,1000]","9600","0","test","2,9,7,6,3,1,5,4","8","","","","",""
"single-stim-button","46","206679","0.0-9.0-5.0","1329","1","digit-span","true","0","","9329","","","response","","","","","","9329","1000","test","2,9,7,6,3,1,5,4","8","SubmitButton","9329","2,9,7,1,6,3,8,5","forward","false"
"html-keyboard-response","47","207684","0.0-10.0-0.0","1329","1","digit-span","true","0","","null","<div class = centerbox><div class = center-text>9 Digits</p></div>","null","test_intro","","","","","","","","","","","","","","",""
"poldrack-multi-stim-multi-response","48","219488","0.0-10.0-1.0","1329","1","digit-span","true","0","","[-1]","","","stim","","[""<div class = centerbox><div class = digit-span-text>5</div></div>"",""<div class = centerbox><div class = digit-span-text>3</div></div>"",""<div class = centerbox><div class = digit-span-text>8</div></div>"",""<div class = centerbox><div class = digit-span-text>7</div></div>"",""<div class = centerbox><div class = digit-span-text>1</div></div>"",""<div class = centerbox><div class = digit-span-text>2</div></div>"",""<div class = centerbox><div class = digit-span-text>4</div></div>"",""<div class = centerbox><div class = digit-span-text>6</div></div>"",""<div class = centerbox><div class = digit-span-text>9</div></div>""]","[-1]","none","[1000,1000,1000,1000,1000,1000,1000,1000,1000]","10800","0","test","5,3,8,7,1,2,4,6,9","9","","","","",""
"single-stim-button","49","233050","0.0-10.0-2.0","1329","1","digit-span","true","0","","13560","","","response","","","","","","13560","1000","test","5,3,8,7,1,2,4,6,9","9","SubmitButton","13560","5,3,8,7,1,2,9,6,7","forward","false"
"html-keyboard-response","50","234054","0.0-10.0-3.0","1329","1","digit-span","true","0","","null","<div class = centerbox><div class = center-text>9 Digits</p></div>","null","test_intro","","","","","","","","","","","","","","",""
"poldrack-multi-stim-multi-response","51","245860","0.0-10.0-4.0","1329","1","digit-span","true","0","","[-1]","","","stim","","[""<div class = centerbox><div class = digit-span-text>4</div></div>"",""<div class = centerbox><div class = digit-span-text>2</div></div>"",""<div class = centerbox><div class = digit-span-text>6</div></div>"",""<div class = centerbox><div class = digit-span-text>9</div></div>"",""<div class = centerbox><div class = digit-span-text>1</div></div>"",""<div class = centerbox><div class = digit-span-text>7</div></div>"",""<div class = centerbox><div class = digit-span-text>8</div></div>"",""<div class = centerbox><div class = digit-span-text>3</div></div>"",""<div class = centerbox><div class = digit-span-text>5</div></div>""]","[-1]","none","[1000,1000,1000,1000,1000,1000,1000,1000,1000]","10800","0","test","4,2,6,9,1,7,8,3,5","9","","","","",""
"single-stim-button","52","274127","0.0-10.0-5.0","1329","1","digit-span","true","0","","28265","","","response","","","","","","28265","1000","test","4,2,6,9,1,7,8,3,5","9","SubmitButton","28265","4,2,6,9,1,7,8,3,5","forward","true"
"html-keyboard-response","53","277113","0.0-11.0","1329","1","digit-span","true","0","","2984","<div class = centerbox><p class = block-text>Now, you will see some numbers, but this time you will enter them <strong>backward</strong>.<br><br>For example, you see <strong>“1—5”</strong>, and you will enter <strong>“5—1”</strong>.<br><br><br>Press <strong>""Enter/Return""</strong> to begin.</p></div>","13","start_reverse","","","","","","","","","","","","","","",""
"html-keyboard-response","54","278115","0.0-12.0-0.0","1329","1","digit-span","true","0","","null","<div class = centerbox><div class = center-text>2 Digits</p></div>","null","test_intro","","","","","","","","","","","","","","",""
"poldrack-multi-stim-multi-response","55","281518","0.0-12.0-1.0","1329","1","digit-span","true","0","","[-1]","","","stim","","[""<div class = centerbox><div class = digit-span-text>8</div></div>"",""<div class = centerbox><div class = digit-span-text>2</div></div>""]","[-1]","none","[1000,1000]","2400","0","test","8,2","2","","","","",""
"single-stim-button","56","283260","0.0-12.0-2.0","1329","1","digit-span","true","0","","1740","","","response","","","","","","1740","1000","test","8,2","2","SubmitButton","1740","2,8","practice","true"
"html-keyboard-response","57","293264","0.0-12.0-3.0","1329","1","digit-span","true","0","","null","<div class = centerbox><div class = center-block-text><span style=""color:green"">Correct!</span></div></div>","null","feedback","","","","","","","","","","","","","","",""
"html-keyboard-response","58","294267","0.0-12.0-4.0","1329","1","digit-span","true","0","","null","<div class = centerbox><div class = center-text>2 Digits</p></div>","null","test_intro","","","","","","","","","","","","","","",""
"poldrack-multi-stim-multi-response","59","297671","0.0-12.0-5.0","1329","1","digit-span","true","0","","[-1]","","","stim","","[""<div class = centerbox><div class = digit-span-text>5</div></div>"",""<div class = centerbox><div class = digit-span-text>6</div></div>""]","[-1]","none","[1000,1000]","2400","0","test","5,6","2","","","","",""
"single-stim-button","60","299596","0.0-12.0-6.0","1329","1","digit-span","true","0","","1922","","","response","","","","","","1922","1000","test","5,6","2","SubmitButton","1922","6,5","practice","true"
"html-keyboard-response","61","300600","0.0-13.0-0.0","1329","1","digit-span","true","0","","null","<div class = centerbox><div class = center-text>2 Digits</p></div>","null","test_intro","","","","","","","","","","","","","","",""
"poldrack-multi-stim-multi-response","62","304006","0.0-13.0-1.0","1329","1","digit-span","true","0","","[-1]","","","stim","","[""<div class = centerbox><div class = digit-span-text>2</div></div>"",""<div class = centerbox><div class = digit-span-text>5</div></div>""]","[-1]","none","[1000,1000]","2400","0","test","2,5","2","","","","",""
"single-stim-button","63","306377","0.0-13.0-2.0","1329","1","digit-span","true","0","","2369","","","response","","","","","","2369","1000","test","2,5","2","SubmitButton","2369","5,2","reverse","true"
"html-keyboard-response","64","307379","0.0-13.0-3.0","1329","1","digit-span","true","0","","null","<div class = centerbox><div class = center-text>2 Digits</p></div>","null","test_intro","","","","","","","","","","","","","","",""
"poldrack-multi-stim-multi-response","65","310784","0.0-13.0-4.0","1329","1","digit-span","true","0","","[-1]","","","stim","","[""<div class = centerbox><div class = digit-span-text>6</div></div>"",""<div class = centerbox><div class = digit-span-text>3</div></div>""]","[-1]","none","[1000,1000]","2400","0","test","6,3","2","","","","",""
"single-stim-button","66","312449","0.0-13.0-5.0","1329","1","digit-span","true","0","","1664","","","response","","","","","","1664","1000","test","6,3","2","SubmitButton","1664","3,6","reverse","true"
"html-keyboard-response","67","313452","0.0-14.0-0.0","1329","1","digit-span","true","0","","null","<div class = centerbox><div class = center-text>3 Digits</p></div>","null","test_intro","","","","","","","","","","","","","","",""
"poldrack-multi-stim-multi-response","68","318057","0.0-14.0-1.0","1329","1","digit-span","true","0","","[-1]","","","stim","","[""<div class = centerbox><div class = digit-span-text>5</div></div>"",""<div class = centerbox><div class = digit-span-text>7</div></div>"",""<div class = centerbox><div class = digit-span-text>4</div></div>""]","[-1]","none","[1000,1000,1000]","3600","0","test","5,7,4","3","","","","",""
"single-stim-button","69","320020","0.0-14.0-2.0","1329","1","digit-span","true","0","","1961","","","response","","","","","","1961","1000","test","5,7,4","3","SubmitButton","1961","4,7,5","reverse","true"
"html-keyboard-response","70","321023","0.0-14.0-3.0","1329","1","digit-span","true","0","","null","<div class = centerbox><div class = center-text>3 Digits</p></div>","null","test_intro","","","","","","","","","","","","","","",""
"poldrack-multi-stim-multi-response","71","325627","0.0-14.0-4.0","1329","1","digit-span","true","0","","[-1]","","","stim","","[""<div class = centerbox><div class = digit-span-text>2</div></div>"",""<div class = centerbox><div class = digit-span-text>5</div></div>"",""<div class = centerbox><div class = digit-span-text>9</div></div>""]","[-1]","none","[1000,1000,1000]","3600","0","test","2,5,9","3","","","","",""
"single-stim-button","72","327946","0.0-14.0-5.0","1329","1","digit-span","true","0","","2317","","","response","","","","","","2317","1000","test","2,5,9","3","SubmitButton","2317","9,5,2","reverse","true"
"html-keyboard-response","73","328949","0.0-15.0-0.0","1329","1","digit-span","true","0","","null","<div class = centerbox><div class = center-text>4 Digits</p></div>","null","test_intro","","","","","","","","","","","","","","",""
"poldrack-multi-stim-multi-response","74","334754","0.0-15.0-1.0","1329","1","digit-span","true","0","","[-1]","","","stim","","[""<div class = centerbox><div class = digit-span-text>7</div></div>"",""<div class = centerbox><div class = digit-span-text>2</div></div>"",""<div class = centerbox><div class = digit-span-text>9</div></div>"",""<div class = centerbox><div class = digit-span-text>6</div></div>""]","[-1]","none","[1000,1000,1000,1000]","4800","0","test","7,2,9,6","4","","","","",""
"single-stim-button","75","343433","0.0-15.0-2.0","1329","1","digit-span","true","0","","8677","","","response","","","","","","8677","1000","test","7,2,9,6","4","SubmitButton","8677","6,9,7,2","reverse","false"
"html-keyboard-response","76","344436","0.0-15.0-3.0","1329","1","digit-span","true","0","","null","<div class = centerbox><div class = center-text>4 Digits</p></div>","null","test_intro","","","","","","","","","","","","","","",""
"poldrack-multi-stim-multi-response","77","350240","0.0-15.0-4.0","1329","1","digit-span","true","0","","[-1]","","","stim","","[""<div class = centerbox><div class = digit-span-text>8</div></div>"",""<div class = centerbox><div class = digit-span-text>4</div></div>"",""<div class = centerbox><div class = digit-span-text>9</div></div>"",""<div class = centerbox><div class = digit-span-text>3</div></div>""]","[-1]","none","[1000,1000,1000,1000]","4800","0","test","8,4,9,3","4","","","","",""
"single-stim-button","78","358446","0.0-15.0-5.0","1329","1","digit-span","true","0","","8203","","","response","","","","","","8203","1000","test","8,4,9,3","4","SubmitButton","8203","3,9,4,8","reverse","true"
"html-keyboard-response","79","359451","0.0-16.0-0.0","1329","1","digit-span","true","0","","null","<div class = centerbox><div class = center-text>5 Digits</p></div>","null","test_intro","","","","","","","","","","","","","","",""
"poldrack-multi-stim-multi-response","80","366457","0.0-16.0-1.0","1329","1","digit-span","true","0","","[-1]","","","stim","","[""<div class = centerbox><div class = digit-span-text>4</div></div>"",""<div class = centerbox><div class = digit-span-text>1</div></div>"",""<div class = centerbox><div class = digit-span-text>3</div></div>"",""<div class = centerbox><div class = digit-span-text>5</div></div>"",""<div class = centerbox><div class = digit-span-text>7</div></div>""]","[-1]","none","[1000,1000,1000,1000,1000]","6000","0","test","4,1,3,5,7","5","","","","",""
"single-stim-button","81","371267","0.0-16.0-2.0","1329","1","digit-span","true","0","","4809","","","response","","","","","","4809","1000","test","4,1,3,5,7","5","SubmitButton","4809","7,5,3,1,4","reverse","true"
"html-keyboard-response","82","372269","0.0-16.0-3.0","1329","1","digit-span","true","0","","null","<div class = centerbox><div class = center-text>5 Digits</p></div>","null","test_intro","","","","","","","","","","","","","","",""
"poldrack-multi-stim-multi-response","83","379275","0.0-16.0-4.0","1329","1","digit-span","true","0","","[-1]","","","stim","","[""<div class = centerbox><div class = digit-span-text>9</div></div>"",""<div class = centerbox><div class = digit-span-text>7</div></div>"",""<div class = centerbox><div class = digit-span-text>8</div></div>"",""<div class = centerbox><div class = digit-span-text>5</div></div>"",""<div class = centerbox><div class = digit-span-text>2</div></div>""]","[-1]","none","[1000,1000,1000,1000,1000]","6000","0","test","9,7,8,5,2","5","","","","",""
"single-stim-button","84","382347","0.0-16.0-5.0","1329","1","digit-span","true","0","","3070","","","response","","","","","","3070","1000","test","9,7,8,5,2","5","SubmitButton","3070","2,5,8,7,9","reverse","true"
"html-keyboard-response","85","383349","0.0-17.0-0.0","1329","1","digit-span","true","0","","null","<div class = centerbox><div class = center-text>6 Digits</p></div>","null","test_intro","","","","","","","","","","","","","","",""
"poldrack-multi-stim-multi-response","86","391555","0.0-17.0-1.0","1329","1","digit-span","true","0","","[-1]","","","stim","","[""<div class = centerbox><div class = digit-span-text>1</div></div>"",""<div class = centerbox><div class = digit-span-text>6</div></div>"",""<div class = centerbox><div class = digit-span-text>5</div></div>"",""<div class = centerbox><div class = digit-span-text>2</div></div>"",""<div class = centerbox><div class = digit-span-text>9</div></div>"",""<div class = centerbox><div class = digit-span-text>8</div></div>""]","[-1]","none","[1000,1000,1000,1000,1000,1000]","7200","0","test","1,6,5,2,9,8","6","","","","",""
"single-stim-button","87","395722","0.0-17.0-2.0","1329","1","digit-span","true","0","","4166","","","response","","","","","","4166","1000","test","1,6,5,2,9,8","6","SubmitButton","4166","8,9,2,5,6,1","reverse","true"
"html-keyboard-response","88","396725","0.0-17.0-3.0","1329","1","digit-span","true","0","","null","<div class = centerbox><div class = center-text>6 Digits</p></div>","null","test_intro","","","","","","","","","","","","","","",""
"poldrack-multi-stim-multi-response","89","404930","0.0-17.0-4.0","1329","1","digit-span","true","0","","[-1]","","","stim","","[""<div class = centerbox><div class = digit-span-text>3</div></div>"",""<div class = centerbox><div class = digit-span-text>6</div></div>"",""<div class = centerbox><div class = digit-span-text>7</div></div>"",""<div class = centerbox><div class = digit-span-text>1</div></div>"",""<div class = centerbox><div class = digit-span-text>9</div></div>"",""<div class = centerbox><div class = digit-span-text>4</div></div>""]","[-1]","none","[1000,1000,1000,1000,1000,1000]","7200","0","test","3,6,7,1,9,4","6","","","","",""
"single-stim-button","90","408471","0.0-17.0-5.0","1329","1","digit-span","true","0","","3540","","","response","","","","","","3540","1000","test","3,6,7,1,9,4","6","SubmitButton","3540","4,9,1,7,6,3","reverse","true"
"html-keyboard-response","91","409474","0.0-18.0-0.0","1329","1","digit-span","true","0","","null","<div class = centerbox><div class = center-text>7 Digits</p></div>","null","test_intro","","","","","","","","","","","","","","",""
"poldrack-multi-stim-multi-response","92","418878","0.0-18.0-1.0","1329","1","digit-span","true","0","","[-1]","","","stim","","[""<div class = centerbox><div class = digit-span-text>8</div></div>"",""<div class = centerbox><div class = digit-span-text>5</div></div>"",""<div class = centerbox><div class = digit-span-text>9</div></div>"",""<div class = centerbox><div class = digit-span-text>2</div></div>"",""<div class = centerbox><div class = digit-span-text>3</div></div>"",""<div class = centerbox><div class = digit-span-text>4</div></div>"",""<div class = centerbox><div class = digit-span-text>2</div></div>""]","[-1]","none","[1000,1000,1000,1000,1000,1000,1000]","8400","0","test","8,5,9,2,3,4,2","7","","","","",""
"single-stim-button","93","425313","0.0-18.0-2.0","1329","1","digit-span","true","0","","6433","","","response","","","","","","6433","1000","test","8,5,9,2,3,4,2","7","SubmitButton","6433","2,4,3,1,9,5,8","reverse","false"
"html-keyboard-response","94","426315","0.0-18.0-3.0","1329","1","digit-span","true","0","","null","<div class = centerbox><div class = center-text>7 Digits</p></div>","null","test_intro","","","","","","","","","","","","","","",""
"poldrack-multi-stim-multi-response","95","435721","0.0-18.0-4.0","1329","1","digit-span","true","0","","[-1]","","","stim","","[""<div class = centerbox><div class = digit-span-text>4</div></div>"",""<div class = centerbox><div class = digit-span-text>5</div></div>"",""<div class = centerbox><div class = digit-span-text>7</div></div>"",""<div class = centerbox><div class = digit-span-text>9</div></div>"",""<div class = centerbox><div class = digit-span-text>2</div></div>"",""<div class = centerbox><div class = digit-span-text>8</div></div>"",""<div class = centerbox><div class = digit-span-text>1</div></div>""]","[-1]","none","[1000,1000,1000,1000,1000,1000,1000]","8400","0","test","4,5,7,9,2,8,1","7","","","","",""
"single-stim-button","96","441764","0.0-18.0-5.0","1329","1","digit-span","true","0","","6041","","","response","","","","","","6041","1000","test","4,5,7,9,2,8,1","7","SubmitButton","6041","1,8,2,5,9,7,3","reverse","false"
"image-keyboard-response","97","443193","0.0-20.0","1329","1","digit-span","true","0","","1426.8999999761581","img/trophy2.jpeg","13","end","","","","","","","","","","","","","","",""
