"trial_type","trial_index","time_elapsed","internal_node_id","subject","exp_id","full_screen","focus_shifts","success","rt","stimulus","key_press","trial_id","view_history","stimuli","key_presses","possible_responses","stim_durations","block_duration","timing_post_trial","exp_stage","sequence","num_digits","mouse_click","stim_duration","response","condition","correct"
"pavlovia","0","1527","0.0-0.0","1006","digit-span","true","0","","","","","","","","","","","","","","","","","","","",""
"fullscreen","1","4562","0.0-1.0","1006","digit-span","true","0","true","","","","","","","","","","","","","","","","","","",""
"html-keyboard-response","2","9110","0.0-2.0-0.0","1006","digit-span","true","0","","4544.740000041202","<div class = centerbox><p class = center-block-text>Welcome to the number game! It will take less than 5 minutes. Press <strong>""Enter/Return""</strong> to begin.</p></div>","13","instruction","","","","","","","","","","","","","","",""
"instructions","3","18413","0.0-2.0-1.0","1006","digit-span","true","0","","9301.825000031386","","","instruction","[{""page_index"":0,""viewing_time"":9301.359999983106}]","","","","","","","","","","","","","",""
"instructions","4","24267","0.0-2.0-2.0","1006","digit-span","true","0","","4832.7700000372715","","","instruction","[{""page_index"":0,""viewing_time"":4832.485000020824}]","","","","","","","","","","","","","",""
"html-keyboard-response","5","26284","0.0-3.0-0.0","1006","digit-span","true","0","","null","<div class = centerbox><div class = center-text>2 Digits</p></div>","null","test_intro","","","","","","","","","","","","","","",""
"poldrack-multi-stim-multi-response","6","29709","0.0-3.0-1.0","1006","digit-span","true","0","","[-1]","","","stim","","[""<div class = centerbox><div class = digit-span-text>2</div></div>"",""<div class = centerbox><div class = digit-span-text>9</div></div>""]","[-1]","none","[1000,1000]","2400","0","test","2,9","2","","","","",""
"single-stim-button","7","36704","0.0-3.0-2.0","1006","digit-span","true","0","","6992","","","response","","","","","","6992","1000","test","2,9","2","SubmitButton","6992","2,9","forward","true"
"html-keyboard-response","8","37706","0.0-3.0-3.0","1006","digit-span","true","0","","null","<div class = centerbox><div class = center-text>2 Digits</p></div>","null","test_intro","","","","","","","","","","","","","","",""
"poldrack-multi-stim-multi-response","9","41112","0.0-3.0-4.0","1006","digit-span","true","0","","[-1]","","","stim","","[""<div class = centerbox><div class = digit-span-text>4</div></div>"",""<div class = centerbox><div class = digit-span-text>6</div></div>""]","[-1]","none","[1000,1000]","2400","0","test","4,6","2","","","","",""
"single-stim-button","10","46508","0.0-3.0-5.0","1006","digit-span","true","0","","5394","","","response","","","","","","5394","1000","test","4,6","2","SubmitButton","5394","4,6","forward","true"
"html-keyboard-response","11","47510","0.0-4.0-0.0","1006","digit-span","true","0","","null","<div class = centerbox><div class = center-text>3 Digits</p></div>","null","test_intro","","","","","","","","","","","","","","",""
"poldrack-multi-stim-multi-response","12","52116","0.0-4.0-1.0","1006","digit-span","true","0","","[-1]","","","stim","","[""<div class = centerbox><div class = digit-span-text>3</div></div>"",""<div class = centerbox><div class = digit-span-text>8</div></div>"",""<div class = centerbox><div class = digit-span-text>6</div></div>""]","[-1]","none","[1000,1000,1000]","3600","0","test","3,8,6","3","","","","",""
"single-stim-button","13","64893","0.0-4.0-2.0","1006","digit-span","true","0","","12774","","","response","","","","","","12774","1000","test","3,8,6","3","SubmitButton","12774","3,8,6","forward","true"
"html-keyboard-response","14","65895","0.0-4.0-3.0","1006","digit-span","true","0","","null","<div class = centerbox><div class = center-text>3 Digits</p></div>","null","test_intro","","","","","","","","","","","","","","",""
"poldrack-multi-stim-multi-response","15","70501","0.0-4.0-4.0","1006","digit-span","true","0","","[-1]","","","stim","","[""<div class = centerbox><div class = digit-span-text>6</div></div>"",""<div class = centerbox><div class = digit-span-text>1</div></div>"",""<div class = centerbox><div class = digit-span-text>2</div></div>""]","[-1]","none","[1000,1000,1000]","3600","0","test","6,1,2","3","","","","",""
"single-stim-button","16","79062","0.0-4.0-5.0","1006","digit-span","true","0","","8559","","","response","","","","","","8559","1000","test","6,1,2","3","SubmitButton","8559","6,1,2","forward","true"
"html-keyboard-response","17","80064","0.0-5.0-0.0","1006","digit-span","true","0","","null","<div class = centerbox><div class = center-text>4 Digits</p></div>","null","test_intro","","","","","","","","","","","","","","",""
"poldrack-multi-stim-multi-response","18","85869","0.0-5.0-1.0","1006","digit-span","true","0","","[-1]","","","stim","","[""<div class = centerbox><div class = digit-span-text>3</div></div>"",""<div class = centerbox><div class = digit-span-text>4</div></div>"",""<div class = centerbox><div class = digit-span-text>1</div></div>"",""<div class = centerbox><div class = digit-span-text>7</div></div>""]","[-1]","none","[1000,1000,1000,1000]","4800","0","test","3,4,1,7","4","","","","",""
"single-stim-button","19","94902","0.0-5.0-2.0","1006","digit-span","true","0","","9030","","","response","","","","","","9030","1000","test","3,4,1,7","4","SubmitButton","9030","3,4,1,7","forward","true"
"html-keyboard-response","20","95905","0.0-5.0-3.0","1006","digit-span","true","0","","null","<div class = centerbox><div class = center-text>4 Digits</p></div>","null","test_intro","","","","","","","","","","","","","","",""
"poldrack-multi-stim-multi-response","21","101710","0.0-5.0-4.0","1006","digit-span","true","0","","[-1]","","","stim","","[""<div class = centerbox><div class = digit-span-text>6</div></div>"",""<div class = centerbox><div class = digit-span-text>1</div></div>"",""<div class = centerbox><div class = digit-span-text>5</div></div>"",""<div class = centerbox><div class = digit-span-text>8</div></div>""]","[-1]","none","[1000,1000,1000,1000]","4800","0","test","6,1,5,8","4","","","","",""
"single-stim-button","22","111798","0.0-5.0-5.0","1006","digit-span","true","0","","10086","","","response","","","","","","10086","1000","test","6,1,5,8","4","SubmitButton","10086","6,1,5,8","forward","true"
"html-keyboard-response","23","112801","0.0-6.0-0.0","1006","digit-span","true","0","","null","<div class = centerbox><div class = center-text>5 Digits</p></div>","null","test_intro","","","","","","","","","","","","","","",""
"poldrack-multi-stim-multi-response","24","119806","0.0-6.0-1.0","1006","digit-span","true","0","","[-1]","","","stim","","[""<div class = centerbox><div class = digit-span-text>8</div></div>"",""<div class = centerbox><div class = digit-span-text>4</div></div>"",""<div class = centerbox><div class = digit-span-text>2</div></div>"",""<div class = centerbox><div class = digit-span-text>3</div></div>"",""<div class = centerbox><div class = digit-span-text>9</div></div>""]","[-1]","none","[1000,1000,1000,1000,1000]","6000","0","test","8,4,2,3,9","5","","","","",""
"single-stim-button","25","131555","0.0-6.0-2.0","1006","digit-span","true","0","","11747","","","response","","","","","","11747","1000","test","8,4,2,3,9","5","SubmitButton","11747","8,4,2,3,9","forward","true"
"html-keyboard-response","26","132557","0.0-6.0-3.0","1006","digit-span","true","0","","null","<div class = centerbox><div class = center-text>5 Digits</p></div>","null","test_intro","","","","","","","","","","","","","","",""
"poldrack-multi-stim-multi-response","27","139563","0.0-6.0-4.0","1006","digit-span","true","0","","[-1]","","","stim","","[""<div class = centerbox><div class = digit-span-text>5</div></div>"",""<div class = centerbox><div class = digit-span-text>2</div></div>"",""<div class = centerbox><div class = digit-span-text>1</div></div>"",""<div class = centerbox><div class = digit-span-text>8</div></div>"",""<div class = centerbox><div class = digit-span-text>6</div></div>""]","[-1]","none","[1000,1000,1000,1000,1000]","6000","0","test","5,2,1,8,6","5","","","","",""
"single-stim-button","28","150402","0.0-6.0-5.0","1006","digit-span","true","0","","10836","","","response","","","","","","10836","1000","test","5,2,1,8,6","5","SubmitButton","10836","5,2,1,8,6","forward","true"
"html-keyboard-response","29","151404","0.0-7.0-0.0","1006","digit-span","true","0","","null","<div class = centerbox><div class = center-text>6 Digits</p></div>","null","test_intro","","","","","","","","","","","","","","",""
"poldrack-multi-stim-multi-response","30","159609","0.0-7.0-1.0","1006","digit-span","true","0","","[-1]","","","stim","","[""<div class = centerbox><div class = digit-span-text>3</div></div>"",""<div class = centerbox><div class = digit-span-text>8</div></div>"",""<div class = centerbox><div class = digit-span-text>9</div></div>"",""<div class = centerbox><div class = digit-span-text>1</div></div>"",""<div class = centerbox><div class = digit-span-text>7</div></div>"",""<div class = centerbox><div class = digit-span-text>4</div></div>""]","[-1]","none","[1000,1000,1000,1000,1000,1000]","7200","0","test","3,8,9,1,7,4","6","","","","",""
"single-stim-button","31","173766","0.0-7.0-2.0","1006","digit-span","true","0","","14154","","","response","","","","","","14154","1000","test","3,8,9,1,7,4","6","SubmitButton","14154","3,8,9,1,7,4","forward","true"
"html-keyboard-response","32","174768","0.0-7.0-3.0","1006","digit-span","true","0","","null","<div class = centerbox><div class = center-text>6 Digits</p></div>","null","test_intro","","","","","","","","","","","","","","",""
"poldrack-multi-stim-multi-response","33","182973","0.0-7.0-4.0","1006","digit-span","true","0","","[-1]","","","stim","","[""<div class = centerbox><div class = digit-span-text>7</div></div>"",""<div class = centerbox><div class = digit-span-text>9</div></div>"",""<div class = centerbox><div class = digit-span-text>6</div></div>"",""<div class = centerbox><div class = digit-span-text>4</div></div>"",""<div class = centerbox><div class = digit-span-text>8</div></div>"",""<div class = centerbox><div class = digit-span-text>3</div></div>""]","[-1]","none","[1000,1000,1000,1000,1000,1000]","7200","0","test","7,9,6,4,8,3","6","","","","",""
"single-stim-button","34","198707","0.0-7.0-5.0","1006","digit-span","true","0","","15731","","","response","","","","","","15731","1000","test","7,9,6,4,8,3","6","SubmitButton","15731","7,9,6,4,8,3","forward","true"
"html-keyboard-response","35","199710","0.0-8.0-0.0","1006","digit-span","true","0","","null","<div class = centerbox><div class = center-text>7 Digits</p></div>","null","test_intro","","","","","","","","","","","","","","",""
"poldrack-multi-stim-multi-response","36","209115","0.0-8.0-1.0","1006","digit-span","true","0","","[-1]","","","stim","","[""<div class = centerbox><div class = digit-span-text>5</div></div>"",""<div class = centerbox><div class = digit-span-text>1</div></div>"",""<div class = centerbox><div class = digit-span-text>7</div></div>"",""<div class = centerbox><div class = digit-span-text>4</div></div>"",""<div class = centerbox><div class = digit-span-text>2</div></div>"",""<div class = centerbox><div class = digit-span-text>3</div></div>"",""<div class = centerbox><div class = digit-span-text>8</div></div>""]","[-1]","none","[1000,1000,1000,1000,1000,1000,1000]","8400","0","test","5,1,7,4,2,3,8","7","","","","",""
"single-stim-button","37","232570","0.0-8.0-2.0","1006","digit-span","true","0","","23453","","","response","","","","","","23453","1000","test","5,1,7,4,2,3,8","7","SubmitButton","23453","5,1,7,4,2,3,8","forward","true"
"html-keyboard-response","38","233572","0.0-8.0-3.0","1006","digit-span","true","0","","null","<div class = centerbox><div class = center-text>7 Digits</p></div>","null","test_intro","","","","","","","","","","","","","","",""
"poldrack-multi-stim-multi-response","39","242985","0.0-8.0-4.0","1006","digit-span","true","0","","[-1]","","","stim","","[""<div class = centerbox><div class = digit-span-text>9</div></div>"",""<div class = centerbox><div class = digit-span-text>8</div></div>"",""<div class = centerbox><div class = digit-span-text>5</div></div>"",""<div class = centerbox><div class = digit-span-text>2</div></div>"",""<div class = centerbox><div class = digit-span-text>1</div></div>"",""<div class = centerbox><div class = digit-span-text>6</div></div>"",""<div class = centerbox><div class = digit-span-text>3</div></div>""]","[-1]","none","[1000,1000,1000,1000,1000,1000,1000]","8400","0","test","9,8,5,2,1,6,3","7","","","","",""
"single-stim-button","40","307596","0.0-8.0-5.0","1006","digit-span","true","0","","64608","","","response","","","","","","64608","1000","test","9,8,5,2,1,6,3","7","SubmitButton","64608","9,8,5,6,2,1,6","forward","false"
"html-keyboard-response","41","308598","0.0-9.0-0.0","1006","digit-span","true","0","","null","<div class = centerbox><div class = center-text>8 Digits</p></div>","null","test_intro","","","","","","","","","","","","","","",""
"poldrack-multi-stim-multi-response","42","319202","0.0-9.0-1.0","1006","digit-span","true","0","","[-1]","","","stim","","[""<div class = centerbox><div class = digit-span-text>1</div></div>"",""<div class = centerbox><div class = digit-span-text>6</div></div>"",""<div class = centerbox><div class = digit-span-text>4</div></div>"",""<div class = centerbox><div class = digit-span-text>5</div></div>"",""<div class = centerbox><div class = digit-span-text>9</div></div>"",""<div class = centerbox><div class = digit-span-text>7</div></div>"",""<div class = centerbox><div class = digit-span-text>6</div></div>"",""<div class = centerbox><div class = digit-span-text>3</div></div>""]","[-1]","none","[1000,1000,1000,1000,1000,1000,1000,1000]","9600","0","test","1,6,4,5,9,7,6,3","8","","","","",""
"single-stim-button","43","343863","0.0-9.0-2.0","1006","digit-span","true","0","","24657","","","response","","","","","","24657","1000","test","1,6,4,5,9,7,6,3","8","SubmitButton","24657","1,6,4,5,9,7,6,3","forward","true"
"html-keyboard-response","44","344865","0.0-9.0-3.0","1006","digit-span","true","0","","null","<div class = centerbox><div class = center-text>8 Digits</p></div>","null","test_intro","","","","","","","","","","","","","","",""
"poldrack-multi-stim-multi-response","45","355483","0.0-9.0-4.0","1006","digit-span","true","0","","[-1]","","","stim","","[""<div class = centerbox><div class = digit-span-text>2</div></div>"",""<div class = centerbox><div class = digit-span-text>9</div></div>"",""<div class = centerbox><div class = digit-span-text>7</div></div>"",""<div class = centerbox><div class = digit-span-text>6</div></div>"",""<div class = centerbox><div class = digit-span-text>3</div></div>"",""<div class = centerbox><div class = digit-span-text>1</div></div>"",""<div class = centerbox><div class = digit-span-text>5</div></div>"",""<div class = centerbox><div class = digit-span-text>4</div></div>""]","[-1]","none","[1000,1000,1000,1000,1000,1000,1000,1000]","9600","0","test","2,9,7,6,3,1,5,4","8","","","","",""
"single-stim-button","46","375475","0.0-9.0-5.0","1006","digit-span","true","0","","19989","","","response","","","","","","19989","1000","test","2,9,7,6,3,1,5,4","8","SubmitButton","19989","2,9,7,6,3,1,5,4","forward","true"
"html-keyboard-response","47","376477","0.0-10.0-0.0","1006","digit-span","true","0","","null","<div class = centerbox><div class = center-text>9 Digits</p></div>","null","test_intro","","","","","","","","","","","","","","",""
"poldrack-multi-stim-multi-response","48","388283","0.0-10.0-1.0","1006","digit-span","true","0","","[-1]","","","stim","","[""<div class = centerbox><div class = digit-span-text>5</div></div>"",""<div class = centerbox><div class = digit-span-text>3</div></div>"",""<div class = centerbox><div class = digit-span-text>8</div></div>"",""<div class = centerbox><div class = digit-span-text>7</div></div>"",""<div class = centerbox><div class = digit-span-text>1</div></div>"",""<div class = centerbox><div class = digit-span-text>2</div></div>"",""<div class = centerbox><div class = digit-span-text>4</div></div>"",""<div class = centerbox><div class = digit-span-text>6</div></div>"",""<div class = centerbox><div class = digit-span-text>9</div></div>""]","[-1]","none","[1000,1000,1000,1000,1000,1000,1000,1000,1000]","10800","0","test","5,3,8,7,1,2,4,6,9","9","","","","",""
"single-stim-button","49","442010","0.0-10.0-2.0","1006","digit-span","true","0","","53724","","","response","","","","","","53724","1000","test","5,3,8,7,1,2,4,6,9","9","SubmitButton","53724","5,3,8,7,1,2,4,6,9","forward","true"
"html-keyboard-response","50","443012","0.0-10.0-3.0","1006","digit-span","true","0","","null","<div class = centerbox><div class = center-text>9 Digits</p></div>","null","test_intro","","","","","","","","","","","","","","",""
"poldrack-multi-stim-multi-response","51","454817","0.0-10.0-4.0","1006","digit-span","true","0","","[-1]","","","stim","","[""<div class = centerbox><div class = digit-span-text>4</div></div>"",""<div class = centerbox><div class = digit-span-text>2</div></div>"",""<div class = centerbox><div class = digit-span-text>6</div></div>"",""<div class = centerbox><div class = digit-span-text>9</div></div>"",""<div class = centerbox><div class = digit-span-text>1</div></div>"",""<div class = centerbox><div class = digit-span-text>7</div></div>"",""<div class = centerbox><div class = digit-span-text>8</div></div>"",""<div class = centerbox><div class = digit-span-text>3</div></div>"",""<div class = centerbox><div class = digit-span-text>5</div></div>""]","[-1]","none","[1000,1000,1000,1000,1000,1000,1000,1000,1000]","10800","0","test","4,2,6,9,1,7,8,3,5","9","","","","",""
"single-stim-button","52","459674","0.0-10.0-5.0","1006","digit-span","true","0","","4855","","","response","","","","","","4855","1000","test","4,2,6,9,1,7,8,3,5","9","SubmitButton","4855","8,8,8,8,8","forward","false"
"html-keyboard-response","53","471128","0.0-11.0","1006","digit-span","true","0","","11453.014999977313","<div class = centerbox><p class = block-text>Now, you will see some numbers, but this time you will enter them <strong>backward</strong>.<br><br>For example, you see <strong>“1—5”</strong>, and you will enter <strong>“5—1”</strong>.<br><br><br>Press <strong>""Enter/Return""</strong> to begin.</p></div>","13","start_reverse","","","","","","","","","","","","","","",""
"html-keyboard-response","54","472131","0.0-12.0-0.0","1006","digit-span","true","0","","null","<div class = centerbox><div class = center-text>2 Digits</p></div>","null","test_intro","","","","","","","","","","","","","","",""
"poldrack-multi-stim-multi-response","55","475536","0.0-12.0-1.0","1006","digit-span","true","0","","[-1]","","","stim","","[""<div class = centerbox><div class = digit-span-text>8</div></div>"",""<div class = centerbox><div class = digit-span-text>2</div></div>""]","[-1]","none","[1000,1000]","2400","0","test","8,2","2","","","","",""
"single-stim-button","56","482971","0.0-12.0-2.0","1006","digit-span","true","0","","7433","","","response","","","","","","7433","1000","test","8,2","2","SubmitButton","7433","8,2","practice","false"
"html-keyboard-response","57","492973","0.0-12.0-3.0","1006","digit-span","true","0","","null","<div class = centerbox><div class = center-block-text><span style=""color:red"">No, you should enter ""2—8"".<br><br>You saw ""8—2"", so to enter it <strong>backward</strong>, you would press ""2—8"".</span></div></div>","null","feedback","","","","","","","","","","","","","","",""
"html-keyboard-response","58","493976","0.0-12.0-4.0","1006","digit-span","true","0","","null","<div class = centerbox><div class = center-text>2 Digits</p></div>","null","test_intro","","","","","","","","","","","","","","",""
"poldrack-multi-stim-multi-response","59","497382","0.0-12.0-5.0","1006","digit-span","true","0","","[-1]","","","stim","","[""<div class = centerbox><div class = digit-span-text>5</div></div>"",""<div class = centerbox><div class = digit-span-text>6</div></div>""]","[-1]","none","[1000,1000]","2400","0","test","5,6","2","","","","",""
"single-stim-button","60","504221","0.0-12.0-6.0","1006","digit-span","true","0","","6838","","","response","","","","","","6838","1000","test","5,6","2","SubmitButton","6838","6,5","practice","true"
"html-keyboard-response","61","505224","0.0-13.0-0.0","1006","digit-span","true","0","","null","<div class = centerbox><div class = center-text>2 Digits</p></div>","null","test_intro","","","","","","","","","","","","","","",""
"poldrack-multi-stim-multi-response","62","508630","0.0-13.0-1.0","1006","digit-span","true","0","","[-1]","","","stim","","[""<div class = centerbox><div class = digit-span-text>2</div></div>"",""<div class = centerbox><div class = digit-span-text>5</div></div>""]","[-1]","none","[1000,1000]","2400","0","test","2,5","2","","","","",""
"single-stim-button","63","513370","0.0-13.0-2.0","1006","digit-span","true","0","","4738","","","response","","","","","","4738","1000","test","2,5","2","SubmitButton","4738","5,2","reverse","true"
"html-keyboard-response","64","514372","0.0-13.0-3.0","1006","digit-span","true","0","","null","<div class = centerbox><div class = center-text>2 Digits</p></div>","null","test_intro","","","","","","","","","","","","","","",""
"poldrack-multi-stim-multi-response","65","517776","0.0-13.0-4.0","1006","digit-span","true","0","","[-1]","","","stim","","[""<div class = centerbox><div class = digit-span-text>6</div></div>"",""<div class = centerbox><div class = digit-span-text>3</div></div>""]","[-1]","none","[1000,1000]","2400","0","test","6,3","2","","","","",""
"single-stim-button","66","522945","0.0-13.0-5.0","1006","digit-span","true","0","","5168","","","response","","","","","","5168","1000","test","6,3","2","SubmitButton","5168","3,6","reverse","true"
"html-keyboard-response","67","523947","0.0-14.0-0.0","1006","digit-span","true","0","","null","<div class = centerbox><div class = center-text>3 Digits</p></div>","null","test_intro","","","","","","","","","","","","","","",""
"poldrack-multi-stim-multi-response","68","528565","0.0-14.0-1.0","1006","digit-span","true","0","","[-1]","","","stim","","[""<div class = centerbox><div class = digit-span-text>5</div></div>"",""<div class = centerbox><div class = digit-span-text>7</div></div>"",""<div class = centerbox><div class = digit-span-text>4</div></div>""]","[-1]","none","[1000,1000,1000]","3600","0","test","5,7,4","3","","","","",""
"single-stim-button","69","534036","0.0-14.0-2.0","1006","digit-span","true","0","","5468","","","response","","","","","","5468","1000","test","5,7,4","3","SubmitButton","5468","4,7,5","reverse","true"
"html-keyboard-response","70","535037","0.0-14.0-3.0","1006","digit-span","true","0","","null","<div class = centerbox><div class = center-text>3 Digits</p></div>","null","test_intro","","","","","","","","","","","","","","",""
"poldrack-multi-stim-multi-response","71","539649","0.0-14.0-4.0","1006","digit-span","true","0","","[-1]","","","stim","","[""<div class = centerbox><div class = digit-span-text>2</div></div>"",""<div class = centerbox><div class = digit-span-text>5</div></div>"",""<div class = centerbox><div class = digit-span-text>9</div></div>""]","[-1]","none","[1000,1000,1000]","3600","0","test","2,5,9","3","","","","",""
"single-stim-button","72","554535","0.0-14.0-5.0","1006","digit-span","true","0","","14884","","","response","","","","","","14884","1000","test","2,5,9","3","SubmitButton","14884","2,5,9","reverse","false"
"html-keyboard-response","73","555538","0.0-15.0-0.0","1006","digit-span","true","0","","null","<div class = centerbox><div class = center-text>4 Digits</p></div>","null","test_intro","","","","","","","","","","","","","","",""
"poldrack-multi-stim-multi-response","74","561343","0.0-15.0-1.0","1006","digit-span","true","0","","[-1]","","","stim","","[""<div class = centerbox><div class = digit-span-text>7</div></div>"",""<div class = centerbox><div class = digit-span-text>2</div></div>"",""<div class = centerbox><div class = digit-span-text>9</div></div>"",""<div class = centerbox><div class = digit-span-text>6</div></div>""]","[-1]","none","[1000,1000,1000,1000]","4800","0","test","7,2,9,6","4","","","","",""
"single-stim-button","75","573299","0.0-15.0-2.0","1006","digit-span","true","0","","11953","","","response","","","","","","11953","1000","test","7,2,9,6","4","SubmitButton","11953","6,9,2,7","reverse","true"
"html-keyboard-response","76","574301","0.0-15.0-3.0","1006","digit-span","true","0","","null","<div class = centerbox><div class = center-text>4 Digits</p></div>","null","test_intro","","","","","","","","","","","","","","",""
"poldrack-multi-stim-multi-response","77","580109","0.0-15.0-4.0","1006","digit-span","true","0","","[-1]","","","stim","","[""<div class = centerbox><div class = digit-span-text>8</div></div>"",""<div class = centerbox><div class = digit-span-text>4</div></div>"",""<div class = centerbox><div class = digit-span-text>9</div></div>"",""<div class = centerbox><div class = digit-span-text>3</div></div>""]","[-1]","none","[1000,1000,1000,1000]","4800","0","test","8,4,9,3","4","","","","",""
"single-stim-button","78","589701","0.0-15.0-5.0","1006","digit-span","true","0","","9589","","","response","","","","","","9589","1000","test","8,4,9,3","4","SubmitButton","9589","3,9,4,8","reverse","true"
"html-keyboard-response","79","590703","0.0-16.0-0.0","1006","digit-span","true","0","","null","<div class = centerbox><div class = center-text>5 Digits</p></div>","null","test_intro","","","","","","","","","","","","","","",""
"poldrack-multi-stim-multi-response","80","597709","0.0-16.0-1.0","1006","digit-span","true","0","","[-1]","","","stim","","[""<div class = centerbox><div class = digit-span-text>4</div></div>"",""<div class = centerbox><div class = digit-span-text>1</div></div>"",""<div class = centerbox><div class = digit-span-text>3</div></div>"",""<div class = centerbox><div class = digit-span-text>5</div></div>"",""<div class = centerbox><div class = digit-span-text>7</div></div>""]","[-1]","none","[1000,1000,1000,1000,1000]","6000","0","test","4,1,3,5,7","5","","","","",""
"single-stim-button","81","609118","0.0-16.0-2.0","1006","digit-span","true","0","","11403","","","response","","","","","","11403","1000","test","4,1,3,5,7","5","SubmitButton","11403","7,5,3,1,4","reverse","true"
"html-keyboard-response","82","610127","0.0-16.0-3.0","1006","digit-span","true","0","","null","<div class = centerbox><div class = center-text>5 Digits</p></div>","null","test_intro","","","","","","","","","","","","","","",""
"poldrack-multi-stim-multi-response","83","617135","0.0-16.0-4.0","1006","digit-span","true","0","","[-1]","","","stim","","[""<div class = centerbox><div class = digit-span-text>9</div></div>"",""<div class = centerbox><div class = digit-span-text>7</div></div>"",""<div class = centerbox><div class = digit-span-text>8</div></div>"",""<div class = centerbox><div class = digit-span-text>5</div></div>"",""<div class = centerbox><div class = digit-span-text>2</div></div>""]","[-1]","none","[1000,1000,1000,1000,1000]","6000","0","test","9,7,8,5,2","5","","","","",""
"single-stim-button","84","627010","0.0-16.0-5.0","1006","digit-span","true","0","","9873","","","response","","","","","","9873","1000","test","9,7,8,5,2","5","SubmitButton","9873","2,5,8,7,9","reverse","true"
"html-keyboard-response","85","628012","0.0-17.0-0.0","1006","digit-span","true","0","","null","<div class = centerbox><div class = center-text>6 Digits</p></div>","null","test_intro","","","","","","","","","","","","","","",""
"poldrack-multi-stim-multi-response","86","636217","0.0-17.0-1.0","1006","digit-span","true","0","","[-1]","","","stim","","[""<div class = centerbox><div class = digit-span-text>1</div></div>"",""<div class = centerbox><div class = digit-span-text>6</div></div>"",""<div class = centerbox><div class = digit-span-text>5</div></div>"",""<div class = centerbox><div class = digit-span-text>2</div></div>"",""<div class = centerbox><div class = digit-span-text>9</div></div>"",""<div class = centerbox><div class = digit-span-text>8</div></div>""]","[-1]","none","[1000,1000,1000,1000,1000,1000]","7200","0","test","1,6,5,2,9,8","6","","","","",""
"single-stim-button","87","649291","0.0-17.0-2.0","1006","digit-span","true","0","","13071","","","response","","","","","","13071","1000","test","1,6,5,2,9,8","6","SubmitButton","13071","8,9,2,5,6,1","reverse","true"
"html-keyboard-response","88","650293","0.0-17.0-3.0","1006","digit-span","true","0","","null","<div class = centerbox><div class = center-text>6 Digits</p></div>","null","test_intro","","","","","","","","","","","","","","",""
"poldrack-multi-stim-multi-response","89","658500","0.0-17.0-4.0","1006","digit-span","true","0","","[-1]","","","stim","","[""<div class = centerbox><div class = digit-span-text>3</div></div>"",""<div class = centerbox><div class = digit-span-text>6</div></div>"",""<div class = centerbox><div class = digit-span-text>7</div></div>"",""<div class = centerbox><div class = digit-span-text>1</div></div>"",""<div class = centerbox><div class = digit-span-text>9</div></div>"",""<div class = centerbox><div class = digit-span-text>4</div></div>""]","[-1]","none","[1000,1000,1000,1000,1000,1000]","7200","0","test","3,6,7,1,9,4","6","","","","",""
"single-stim-button","90","679185","0.0-17.0-5.0","1006","digit-span","true","0","","20682","","","response","","","","","","20682","1000","test","3,6,7,1,9,4","6","SubmitButton","20682","4,9,1,7,6,3","reverse","true"
"html-keyboard-response","91","680188","0.0-18.0-0.0","1006","digit-span","true","0","","null","<div class = centerbox><div class = center-text>7 Digits</p></div>","null","test_intro","","","","","","","","","","","","","","",""
"poldrack-multi-stim-multi-response","92","689593","0.0-18.0-1.0","1006","digit-span","true","0","","[-1]","","","stim","","[""<div class = centerbox><div class = digit-span-text>8</div></div>"",""<div class = centerbox><div class = digit-span-text>5</div></div>"",""<div class = centerbox><div class = digit-span-text>9</div></div>"",""<div class = centerbox><div class = digit-span-text>2</div></div>"",""<div class = centerbox><div class = digit-span-text>3</div></div>"",""<div class = centerbox><div class = digit-span-text>4</div></div>"",""<div class = centerbox><div class = digit-span-text>2</div></div>""]","[-1]","none","[1000,1000,1000,1000,1000,1000,1000]","8400","0","test","8,5,9,2,3,4,2","7","","","","",""
"single-stim-button","93","705575","0.0-18.0-2.0","1006","digit-span","true","0","","15980","","","response","","","","","","15980","1000","test","8,5,9,2,3,4,2","7","SubmitButton","15980","2,4,3,2,9,5","reverse","false"
"html-keyboard-response","94","706578","0.0-18.0-3.0","1006","digit-span","true","0","","null","<div class = centerbox><div class = center-text>7 Digits</p></div>","null","test_intro","","","","","","","","","","","","","","",""
"poldrack-multi-stim-multi-response","95","715985","0.0-18.0-4.0","1006","digit-span","true","0","","[-1]","","","stim","","[""<div class = centerbox><div class = digit-span-text>4</div></div>"",""<div class = centerbox><div class = digit-span-text>5</div></div>"",""<div class = centerbox><div class = digit-span-text>7</div></div>"",""<div class = centerbox><div class = digit-span-text>9</div></div>"",""<div class = centerbox><div class = digit-span-text>2</div></div>"",""<div class = centerbox><div class = digit-span-text>8</div></div>"",""<div class = centerbox><div class = digit-span-text>1</div></div>""]","[-1]","none","[1000,1000,1000,1000,1000,1000,1000]","8400","0","test","4,5,7,9,2,8,1","7","","","","",""
"single-stim-button","96","733153","0.0-18.0-5.0","1006","digit-span","true","0","","17166","","","response","","","","","","17166","1000","test","4,5,7,9,2,8,1","7","SubmitButton","17166","1,8,2,9,7,5,4","reverse","true"
"html-keyboard-response","97","734165","0.0-19.0-0.0","1006","digit-span","true","0","","null","<div class = centerbox><div class = center-text>8 Digits</p></div>","null","test_intro","","","","","","","","","","","","","","",""
"poldrack-multi-stim-multi-response","98","744771","0.0-19.0-1.0","1006","digit-span","true","0","","[-1]","","","stim","","[""<div class = centerbox><div class = digit-span-text>6</div></div>"",""<div class = centerbox><div class = digit-span-text>9</div></div>"",""<div class = centerbox><div class = digit-span-text>1</div></div>"",""<div class = centerbox><div class = digit-span-text>6</div></div>"",""<div class = centerbox><div class = digit-span-text>3</div></div>"",""<div class = centerbox><div class = digit-span-text>2</div></div>"",""<div class = centerbox><div class = digit-span-text>5</div></div>"",""<div class = centerbox><div class = digit-span-text>8</div></div>""]","[-1]","none","[1000,1000,1000,1000,1000,1000,1000,1000]","9600","0","test","6,9,1,6,3,2,5,8","8","","","","",""
"single-stim-button","99","766088","0.0-19.0-2.0","1006","digit-span","true","0","","21314","","","response","","","","","","21314","1000","test","6,9,1,6,3,2,5,8","8","SubmitButton","21314","8,5,2,6,1,9,6","reverse","false"
"html-keyboard-response","100","767090","0.0-19.0-3.0","1006","digit-span","true","0","","null","<div class = centerbox><div class = center-text>8 Digits</p></div>","null","test_intro","","","","","","","","","","","","","","",""
"poldrack-multi-stim-multi-response","101","777696","0.0-19.0-4.0","1006","digit-span","true","0","","[-1]","","","stim","","[""<div class = centerbox><div class = digit-span-text>3</div></div>"",""<div class = centerbox><div class = digit-span-text>1</div></div>"",""<div class = centerbox><div class = digit-span-text>7</div></div>"",""<div class = centerbox><div class = digit-span-text>9</div></div>"",""<div class = centerbox><div class = digit-span-text>5</div></div>"",""<div class = centerbox><div class = digit-span-text>4</div></div>"",""<div class = centerbox><div class = digit-span-text>8</div></div>"",""<div class = centerbox><div class = digit-span-text>2</div></div>""]","[-1]","none","[1000,1000,1000,1000,1000,1000,1000,1000]","9600","0","test","3,1,7,9,5,4,8,2","8","","","","",""
"single-stim-button","102","804553","0.0-19.0-5.0","1006","digit-span","true","0","","26854","","","response","","","","","","26854","1000","test","3,1,7,9,5,4,8,2","8","SubmitButton","26854","2,8,9,5,9,7,1,3","reverse","false"
"image-keyboard-response","103","808166","0.0-20.0","1006","digit-span","true","0","","3611.7249999661","img/trophy2.jpeg","13","end","","","","","","","","","","","","","","",""
