"trial_type","trial_index","time_elapsed","internal_node_id","subject","exp_id","full_screen","focus_shifts","success","rt","stimulus","key_press","trial_id","view_history","stimuli","key_presses","possible_responses","stim_durations","block_duration","timing_post_trial","exp_stage","sequence","num_digits","mouse_click","stim_duration","response","condition","correct"
"pavlovia","0","1972","0.0-0.0","1113","digit-span","true","0","","","","","","","","","","","","","","","","","","","",""
"fullscreen","1","7387","0.0-1.0","1113","digit-span","true","0","true","","","","","","","","","","","","","","","","","","",""
"html-keyboard-response","2","20388","0.0-2.0-0.0","1113","digit-span","true","0","","12996.20000000298","<div class = centerbox><p class = center-block-text>Welcome to the number game! It will take less than 5 minutes. Press <strong>""Enter/Return""</strong> to begin.</p></div>","13","instruction","","","","","","","","","","","","","","",""
"instructions","3","30615","0.0-2.0-1.0","1113","digit-span","true","0","","10226.59999999404","","","instruction","[{""page_index"":0,""viewing_time"":10226.39999999851}]","","","","","","","","","","","","","",""
"instructions","4","36985","0.0-2.0-2.0","1113","digit-span","true","0","","5364","","","instruction","[{""page_index"":0,""viewing_time"":5363.79999999702}]","","","","","","","","","","","","","",""
"html-keyboard-response","5","38993","0.0-3.0-0.0","1113","digit-span","true","0","","null","<div class = centerbox><div class = center-text>2 Digits</p></div>","null","test_intro","","","","","","","","","","","","","","",""
"poldrack-multi-stim-multi-response","6","42403","0.0-3.0-1.0","1113","digit-span","true","0","","[-1]","","","stim","","[""<div class = centerbox><div class = digit-span-text>2</div></div>"",""<div class = centerbox><div class = digit-span-text>9</div></div>""]","[-1]","none","[1000,1000]","2400","0","test","2,9","2","","","","",""
"single-stim-button","7","44880","0.0-3.0-2.0","1113","digit-span","true","0","","2473","","","response","","","","","","2473","1000","test","2,9","2","SubmitButton","2473","2,9","forward","true"
"html-keyboard-response","8","45884","0.0-3.0-3.0","1113","digit-span","true","0","","null","<div class = centerbox><div class = center-text>2 Digits</p></div>","null","test_intro","","","","","","","","","","","","","","",""
"poldrack-multi-stim-multi-response","9","49289","0.0-3.0-4.0","1113","digit-span","true","0","","[-1]","","","stim","","[""<div class = centerbox><div class = digit-span-text>4</div></div>"",""<div class = centerbox><div class = digit-span-text>6</div></div>""]","[-1]","none","[1000,1000]","2400","0","test","4,6","2","","","","",""
"single-stim-button","10","51929","0.0-3.0-5.0","1113","digit-span","true","0","","2638","","","response","","","","","","2638","1000","test","4,6","2","SubmitButton","2638","4,6","forward","true"
"html-keyboard-response","11","52931","0.0-4.0-0.0","1113","digit-span","true","0","","null","<div class = centerbox><div class = center-text>3 Digits</p></div>","null","test_intro","","","","","","","","","","","","","","",""
"poldrack-multi-stim-multi-response","12","57537","0.0-4.0-1.0","1113","digit-span","true","0","","[-1]","","","stim","","[""<div class = centerbox><div class = digit-span-text>3</div></div>"",""<div class = centerbox><div class = digit-span-text>8</div></div>"",""<div class = centerbox><div class = digit-span-text>6</div></div>""]","[-1]","none","[1000,1000,1000]","3600","0","test","3,8,6","3","","","","",""
"single-stim-button","13","60208","0.0-4.0-2.0","1113","digit-span","true","0","","2669","","","response","","","","","","2669","1000","test","3,8,6","3","SubmitButton","2669","3,8,6","forward","true"
"html-keyboard-response","14","61210","0.0-4.0-3.0","1113","digit-span","true","0","","null","<div class = centerbox><div class = center-text>3 Digits</p></div>","null","test_intro","","","","","","","","","","","","","","",""
"poldrack-multi-stim-multi-response","15","65815","0.0-4.0-4.0","1113","digit-span","true","0","","[-1]","","","stim","","[""<div class = centerbox><div class = digit-span-text>6</div></div>"",""<div class = centerbox><div class = digit-span-text>1</div></div>"",""<div class = centerbox><div class = digit-span-text>2</div></div>""]","[-1]","none","[1000,1000,1000]","3600","0","test","6,1,2","3","","","","",""
"single-stim-button","16","68681","0.0-4.0-5.0","1113","digit-span","true","0","","2865","","","response","","","","","","2865","1000","test","6,1,2","3","SubmitButton","2865","6,1,2","forward","true"
"html-keyboard-response","17","69683","0.0-5.0-0.0","1113","digit-span","true","0","","null","<div class = centerbox><div class = center-text>4 Digits</p></div>","null","test_intro","","","","","","","","","","","","","","",""
"poldrack-multi-stim-multi-response","18","75492","0.0-5.0-1.0","1113","digit-span","true","0","","[-1]","","","stim","","[""<div class = centerbox><div class = digit-span-text>3</div></div>"",""<div class = centerbox><div class = digit-span-text>4</div></div>"",""<div class = centerbox><div class = digit-span-text>1</div></div>"",""<div class = centerbox><div class = digit-span-text>7</div></div>""]","[-1]","none","[1000,1000,1000,1000]","4800","0","test","3,4,1,7","4","","","","",""
"single-stim-button","19","78419","0.0-5.0-2.0","1113","digit-span","true","0","","2926","","","response","","","","","","2926","1000","test","3,4,1,7","4","SubmitButton","2926","3,4,1,7","forward","true"
"html-keyboard-response","20","79421","0.0-5.0-3.0","1113","digit-span","true","0","","null","<div class = centerbox><div class = center-text>4 Digits</p></div>","null","test_intro","","","","","","","","","","","","","","",""
"poldrack-multi-stim-multi-response","21","85225","0.0-5.0-4.0","1113","digit-span","true","0","","[-1]","","","stim","","[""<div class = centerbox><div class = digit-span-text>6</div></div>"",""<div class = centerbox><div class = digit-span-text>1</div></div>"",""<div class = centerbox><div class = digit-span-text>5</div></div>"",""<div class = centerbox><div class = digit-span-text>8</div></div>""]","[-1]","none","[1000,1000,1000,1000]","4800","0","test","6,1,5,8","4","","","","",""
"single-stim-button","22","88223","0.0-5.0-5.0","1113","digit-span","true","0","","2995","","","response","","","","","","2995","1000","test","6,1,5,8","4","SubmitButton","2995","6,1,5,8","forward","true"
"html-keyboard-response","23","89225","0.0-6.0-0.0","1113","digit-span","true","0","","null","<div class = centerbox><div class = center-text>5 Digits</p></div>","null","test_intro","","","","","","","","","","","","","","",""
"poldrack-multi-stim-multi-response","24","96230","0.0-6.0-1.0","1113","digit-span","true","0","","[-1]","","","stim","","[""<div class = centerbox><div class = digit-span-text>8</div></div>"",""<div class = centerbox><div class = digit-span-text>4</div></div>"",""<div class = centerbox><div class = digit-span-text>2</div></div>"",""<div class = centerbox><div class = digit-span-text>3</div></div>"",""<div class = centerbox><div class = digit-span-text>9</div></div>""]","[-1]","none","[1000,1000,1000,1000,1000]","6000","0","test","8,4,2,3,9","5","","","","",""
"single-stim-button","25","100476","0.0-6.0-2.0","1113","digit-span","true","0","","4243","","","response","","","","","","4243","1000","test","8,4,2,3,9","5","SubmitButton","4243","8,4,2,3,9","forward","true"
"html-keyboard-response","26","101477","0.0-6.0-3.0","1113","digit-span","true","0","","null","<div class = centerbox><div class = center-text>5 Digits</p></div>","null","test_intro","","","","","","","","","","","","","","",""
"poldrack-multi-stim-multi-response","27","108482","0.0-6.0-4.0","1113","digit-span","true","0","","[-1]","","","stim","","[""<div class = centerbox><div class = digit-span-text>5</div></div>"",""<div class = centerbox><div class = digit-span-text>2</div></div>"",""<div class = centerbox><div class = digit-span-text>1</div></div>"",""<div class = centerbox><div class = digit-span-text>8</div></div>"",""<div class = centerbox><div class = digit-span-text>6</div></div>""]","[-1]","none","[1000,1000,1000,1000,1000]","6000","0","test","5,2,1,8,6","5","","","","",""
"single-stim-button","28","115044","0.0-6.0-5.0","1113","digit-span","true","0","","6560","","","response","","","","","","6560","1000","test","5,2,1,8,6","5","SubmitButton","6560","5,2,1,8,6","forward","true"
"html-keyboard-response","29","116047","0.0-7.0-0.0","1113","digit-span","true","0","","null","<div class = centerbox><div class = center-text>6 Digits</p></div>","null","test_intro","","","","","","","","","","","","","","",""
"poldrack-multi-stim-multi-response","30","124252","0.0-7.0-1.0","1113","digit-span","true","0","","[-1]","","","stim","","[""<div class = centerbox><div class = digit-span-text>3</div></div>"",""<div class = centerbox><div class = digit-span-text>8</div></div>"",""<div class = centerbox><div class = digit-span-text>9</div></div>"",""<div class = centerbox><div class = digit-span-text>1</div></div>"",""<div class = centerbox><div class = digit-span-text>7</div></div>"",""<div class = centerbox><div class = digit-span-text>4</div></div>""]","[-1]","none","[1000,1000,1000,1000,1000,1000]","7200","0","test","3,8,9,1,7,4","6","","","","",""
"single-stim-button","31","131913","0.0-7.0-2.0","1113","digit-span","true","0","","7658","","","response","","","","","","7658","1000","test","3,8,9,1,7,4","6","SubmitButton","7658","3,8,9,1,7,4","forward","true"
"html-keyboard-response","32","132915","0.0-7.0-3.0","1113","digit-span","true","0","","null","<div class = centerbox><div class = center-text>6 Digits</p></div>","null","test_intro","","","","","","","","","","","","","","",""
"poldrack-multi-stim-multi-response","33","141119","0.0-7.0-4.0","1113","digit-span","true","0","","[-1]","","","stim","","[""<div class = centerbox><div class = digit-span-text>7</div></div>"",""<div class = centerbox><div class = digit-span-text>9</div></div>"",""<div class = centerbox><div class = digit-span-text>6</div></div>"",""<div class = centerbox><div class = digit-span-text>4</div></div>"",""<div class = centerbox><div class = digit-span-text>8</div></div>"",""<div class = centerbox><div class = digit-span-text>3</div></div>""]","[-1]","none","[1000,1000,1000,1000,1000,1000]","7200","0","test","7,9,6,4,8,3","6","","","","",""
"single-stim-button","34","148669","0.0-7.0-5.0","1113","digit-span","true","0","","7548","","","response","","","","","","7548","1000","test","7,9,6,4,8,3","6","SubmitButton","7548","7,9,6,4,8,3","forward","true"
"html-keyboard-response","35","149670","0.0-8.0-0.0","1113","digit-span","true","0","","null","<div class = centerbox><div class = center-text>7 Digits</p></div>","null","test_intro","","","","","","","","","","","","","","",""
"poldrack-multi-stim-multi-response","36","159074","0.0-8.0-1.0","1113","digit-span","true","0","","[-1]","","","stim","","[""<div class = centerbox><div class = digit-span-text>5</div></div>"",""<div class = centerbox><div class = digit-span-text>1</div></div>"",""<div class = centerbox><div class = digit-span-text>7</div></div>"",""<div class = centerbox><div class = digit-span-text>4</div></div>"",""<div class = centerbox><div class = digit-span-text>2</div></div>"",""<div class = centerbox><div class = digit-span-text>3</div></div>"",""<div class = centerbox><div class = digit-span-text>8</div></div>""]","[-1]","none","[1000,1000,1000,1000,1000,1000,1000]","8400","0","test","5,1,7,4,2,3,8","7","","","","",""
"single-stim-button","37","169530","0.0-8.0-2.0","1113","digit-span","true","0","","10453","","","response","","","","","","10453","1000","test","5,1,7,4,2,3,8","7","SubmitButton","10453","5,1,7,4,2,3,8","forward","true"
"html-keyboard-response","38","170532","0.0-8.0-3.0","1113","digit-span","true","0","","null","<div class = centerbox><div class = center-text>7 Digits</p></div>","null","test_intro","","","","","","","","","","","","","","",""
"poldrack-multi-stim-multi-response","39","179936","0.0-8.0-4.0","1113","digit-span","true","0","","[-1]","","","stim","","[""<div class = centerbox><div class = digit-span-text>9</div></div>"",""<div class = centerbox><div class = digit-span-text>8</div></div>"",""<div class = centerbox><div class = digit-span-text>5</div></div>"",""<div class = centerbox><div class = digit-span-text>2</div></div>"",""<div class = centerbox><div class = digit-span-text>1</div></div>"",""<div class = centerbox><div class = digit-span-text>6</div></div>"",""<div class = centerbox><div class = digit-span-text>3</div></div>""]","[-1]","none","[1000,1000,1000,1000,1000,1000,1000]","8400","0","test","9,8,5,2,1,6,3","7","","","","",""
"single-stim-button","40","186562","0.0-8.0-5.0","1113","digit-span","true","0","","6623","","","response","","","","","","6623","1000","test","9,8,5,2,1,6,3","7","SubmitButton","6623","9,8,5,2,7,6,3","forward","false"
"html-keyboard-response","41","187565","0.0-9.0-0.0","1113","digit-span","true","0","","null","<div class = centerbox><div class = center-text>8 Digits</p></div>","null","test_intro","","","","","","","","","","","","","","",""
"poldrack-multi-stim-multi-response","42","198170","0.0-9.0-1.0","1113","digit-span","true","0","","[-1]","","","stim","","[""<div class = centerbox><div class = digit-span-text>1</div></div>"",""<div class = centerbox><div class = digit-span-text>6</div></div>"",""<div class = centerbox><div class = digit-span-text>4</div></div>"",""<div class = centerbox><div class = digit-span-text>5</div></div>"",""<div class = centerbox><div class = digit-span-text>9</div></div>"",""<div class = centerbox><div class = digit-span-text>7</div></div>"",""<div class = centerbox><div class = digit-span-text>6</div></div>"",""<div class = centerbox><div class = digit-span-text>3</div></div>""]","[-1]","none","[1000,1000,1000,1000,1000,1000,1000,1000]","9600","0","test","1,6,4,5,9,7,6,3","8","","","","",""
"single-stim-button","43","206885","0.0-9.0-2.0","1113","digit-span","true","0","","8712","","","response","","","","","","8712","1000","test","1,6,4,5,9,7,6,3","8","SubmitButton","8712","1,6,4,5,9,7,6,3","forward","true"
"html-keyboard-response","44","207887","0.0-9.0-3.0","1113","digit-span","true","0","","null","<div class = centerbox><div class = center-text>8 Digits</p></div>","null","test_intro","","","","","","","","","","","","","","",""
"poldrack-multi-stim-multi-response","45","218491","0.0-9.0-4.0","1113","digit-span","true","0","","[-1]","","","stim","","[""<div class = centerbox><div class = digit-span-text>2</div></div>"",""<div class = centerbox><div class = digit-span-text>9</div></div>"",""<div class = centerbox><div class = digit-span-text>7</div></div>"",""<div class = centerbox><div class = digit-span-text>6</div></div>"",""<div class = centerbox><div class = digit-span-text>3</div></div>"",""<div class = centerbox><div class = digit-span-text>1</div></div>"",""<div class = centerbox><div class = digit-span-text>5</div></div>"",""<div class = centerbox><div class = digit-span-text>4</div></div>""]","[-1]","none","[1000,1000,1000,1000,1000,1000,1000,1000]","9600","0","test","2,9,7,6,3,1,5,4","8","","","","",""
"single-stim-button","46","223148","0.0-9.0-5.0","1113","digit-span","true","0","","4655","","","response","","","","","","4655","1000","test","2,9,7,6,3,1,5,4","8","SubmitButton","4655","2,9,7,6,5,4,1","forward","false"
"html-keyboard-response","47","224150","0.0-10.0-0.0","1113","digit-span","true","0","","null","<div class = centerbox><div class = center-text>9 Digits</p></div>","null","test_intro","","","","","","","","","","","","","","",""
"poldrack-multi-stim-multi-response","48","235954","0.0-10.0-1.0","1113","digit-span","true","0","","[-1]","","","stim","","[""<div class = centerbox><div class = digit-span-text>5</div></div>"",""<div class = centerbox><div class = digit-span-text>3</div></div>"",""<div class = centerbox><div class = digit-span-text>8</div></div>"",""<div class = centerbox><div class = digit-span-text>7</div></div>"",""<div class = centerbox><div class = digit-span-text>1</div></div>"",""<div class = centerbox><div class = digit-span-text>2</div></div>"",""<div class = centerbox><div class = digit-span-text>4</div></div>"",""<div class = centerbox><div class = digit-span-text>6</div></div>"",""<div class = centerbox><div class = digit-span-text>9</div></div>""]","[-1]","none","[1000,1000,1000,1000,1000,1000,1000,1000,1000]","10800","0","test","5,3,8,7,1,2,4,6,9","9","","","","",""
"single-stim-button","49","247514","0.0-10.0-2.0","1113","digit-span","true","0","","11556","","","response","","","","","","11556","1000","test","5,3,8,7,1,2,4,6,9","9","SubmitButton","11556","5,3,8,4,7,6,1,7","forward","false"
"html-keyboard-response","50","248516","0.0-10.0-3.0","1113","digit-span","true","0","","null","<div class = centerbox><div class = center-text>9 Digits</p></div>","null","test_intro","","","","","","","","","","","","","","",""
"poldrack-multi-stim-multi-response","51","260321","0.0-10.0-4.0","1113","digit-span","true","0","","[-1]","","","stim","","[""<div class = centerbox><div class = digit-span-text>4</div></div>"",""<div class = centerbox><div class = digit-span-text>2</div></div>"",""<div class = centerbox><div class = digit-span-text>6</div></div>"",""<div class = centerbox><div class = digit-span-text>9</div></div>"",""<div class = centerbox><div class = digit-span-text>1</div></div>"",""<div class = centerbox><div class = digit-span-text>7</div></div>"",""<div class = centerbox><div class = digit-span-text>8</div></div>"",""<div class = centerbox><div class = digit-span-text>3</div></div>"",""<div class = centerbox><div class = digit-span-text>5</div></div>""]","[-1]","none","[1000,1000,1000,1000,1000,1000,1000,1000,1000]","10800","0","test","4,2,6,9,1,7,8,3,5","9","","","","",""
"single-stim-button","52","290676","0.0-10.0-5.0","1113","digit-span","true","0","","30354","","","response","","","","","","30354","1000","test","4,2,6,9,1,7,8,3,5","9","SubmitButton","30354","4,7,6,1,3,8,9,7,5,9","forward","false"
"html-keyboard-response","53","296268","0.0-11.0","1113","digit-span","true","0","","5590.5","<div class = centerbox><p class = block-text>Now, you will see some numbers, but this time you will enter them <strong>backward</strong>.<br><br>For example, you see <strong>“1—5”</strong>, and you will enter <strong>“5—1”</strong>.<br><br><br>Press <strong>""Enter/Return""</strong> to begin.</p></div>","13","start_reverse","","","","","","","","","","","","","","",""
"html-keyboard-response","54","297270","0.0-12.0-0.0","1113","digit-span","true","0","","null","<div class = centerbox><div class = center-text>2 Digits</p></div>","null","test_intro","","","","","","","","","","","","","","",""
"poldrack-multi-stim-multi-response","55","300674","0.0-12.0-1.0","1113","digit-span","true","0","","[-1]","","","stim","","[""<div class = centerbox><div class = digit-span-text>8</div></div>"",""<div class = centerbox><div class = digit-span-text>2</div></div>""]","[-1]","none","[1000,1000]","2400","0","test","8,2","2","","","","",""
"single-stim-button","56","304099","0.0-12.0-2.0","1113","digit-span","true","0","","3423","","","response","","","","","","3423","1000","test","8,2","2","SubmitButton","3423","2,8","practice","true"
"html-keyboard-response","57","314101","0.0-12.0-3.0","1113","digit-span","true","0","","null","<div class = centerbox><div class = center-block-text><span style=""color:green"">Correct!</span></div></div>","null","feedback","","","","","","","","","","","","","","",""
"html-keyboard-response","58","315103","0.0-12.0-4.0","1113","digit-span","true","0","","null","<div class = centerbox><div class = center-text>2 Digits</p></div>","null","test_intro","","","","","","","","","","","","","","",""
"poldrack-multi-stim-multi-response","59","318519","0.0-12.0-5.0","1113","digit-span","true","0","","[-1]","","","stim","","[""<div class = centerbox><div class = digit-span-text>5</div></div>"",""<div class = centerbox><div class = digit-span-text>6</div></div>""]","[-1]","none","[1000,1000]","2400","0","test","5,6","2","","","","",""
"single-stim-button","60","320285","0.0-12.0-6.0","1113","digit-span","true","0","","1765","","","response","","","","","","1765","1000","test","5,6","2","SubmitButton","1765","6,5","practice","true"
"html-keyboard-response","61","321287","0.0-13.0-0.0","1113","digit-span","true","0","","null","<div class = centerbox><div class = center-text>2 Digits</p></div>","null","test_intro","","","","","","","","","","","","","","",""
"poldrack-multi-stim-multi-response","62","324692","0.0-13.0-1.0","1113","digit-span","true","0","","[-1]","","","stim","","[""<div class = centerbox><div class = digit-span-text>2</div></div>"",""<div class = centerbox><div class = digit-span-text>5</div></div>""]","[-1]","none","[1000,1000]","2400","0","test","2,5","2","","","","",""
"single-stim-button","63","326712","0.0-13.0-2.0","1113","digit-span","true","0","","2019","","","response","","","","","","2019","1000","test","2,5","2","SubmitButton","2019","5,2","reverse","true"
"html-keyboard-response","64","327714","0.0-13.0-3.0","1113","digit-span","true","0","","null","<div class = centerbox><div class = center-text>2 Digits</p></div>","null","test_intro","","","","","","","","","","","","","","",""
"poldrack-multi-stim-multi-response","65","331118","0.0-13.0-4.0","1113","digit-span","true","0","","[-1]","","","stim","","[""<div class = centerbox><div class = digit-span-text>6</div></div>"",""<div class = centerbox><div class = digit-span-text>3</div></div>""]","[-1]","none","[1000,1000]","2400","0","test","6,3","2","","","","",""
"single-stim-button","66","333012","0.0-13.0-5.0","1113","digit-span","true","0","","1892","","","response","","","","","","1892","1000","test","6,3","2","SubmitButton","1892","3,6","reverse","true"
"html-keyboard-response","67","334013","0.0-14.0-0.0","1113","digit-span","true","0","","null","<div class = centerbox><div class = center-text>3 Digits</p></div>","null","test_intro","","","","","","","","","","","","","","",""
"poldrack-multi-stim-multi-response","68","338622","0.0-14.0-1.0","1113","digit-span","true","0","","[-1]","","","stim","","[""<div class = centerbox><div class = digit-span-text>5</div></div>"",""<div class = centerbox><div class = digit-span-text>7</div></div>"",""<div class = centerbox><div class = digit-span-text>4</div></div>""]","[-1]","none","[1000,1000,1000]","3600","0","test","5,7,4","3","","","","",""
"single-stim-button","69","341341","0.0-14.0-2.0","1113","digit-span","true","0","","2717","","","response","","","","","","2717","1000","test","5,7,4","3","SubmitButton","2717","4,7,5","reverse","true"
"html-keyboard-response","70","342343","0.0-14.0-3.0","1113","digit-span","true","0","","null","<div class = centerbox><div class = center-text>3 Digits</p></div>","null","test_intro","","","","","","","","","","","","","","",""
"poldrack-multi-stim-multi-response","71","346948","0.0-14.0-4.0","1113","digit-span","true","0","","[-1]","","","stim","","[""<div class = centerbox><div class = digit-span-text>2</div></div>"",""<div class = centerbox><div class = digit-span-text>5</div></div>"",""<div class = centerbox><div class = digit-span-text>9</div></div>""]","[-1]","none","[1000,1000,1000]","3600","0","test","2,5,9","3","","","","",""
"single-stim-button","72","351640","0.0-14.0-5.0","1113","digit-span","true","0","","4690","","","response","","","","","","4690","1000","test","2,5,9","3","SubmitButton","4690","9,5,2","reverse","true"
"html-keyboard-response","73","352642","0.0-15.0-0.0","1113","digit-span","true","0","","null","<div class = centerbox><div class = center-text>4 Digits</p></div>","null","test_intro","","","","","","","","","","","","","","",""
"poldrack-multi-stim-multi-response","74","358446","0.0-15.0-1.0","1113","digit-span","true","0","","[-1]","","","stim","","[""<div class = centerbox><div class = digit-span-text>7</div></div>"",""<div class = centerbox><div class = digit-span-text>2</div></div>"",""<div class = centerbox><div class = digit-span-text>9</div></div>"",""<div class = centerbox><div class = digit-span-text>6</div></div>""]","[-1]","none","[1000,1000,1000,1000]","4800","0","test","7,2,9,6","4","","","","",""
"single-stim-button","75","364229","0.0-15.0-2.0","1113","digit-span","true","0","","5781","","","response","","","","","","5781","1000","test","7,2,9,6","4","SubmitButton","5781","6,9,2,7","reverse","true"
"html-keyboard-response","76","365231","0.0-15.0-3.0","1113","digit-span","true","0","","null","<div class = centerbox><div class = center-text>4 Digits</p></div>","null","test_intro","","","","","","","","","","","","","","",""
"poldrack-multi-stim-multi-response","77","371038","0.0-15.0-4.0","1113","digit-span","true","0","","[-1]","","","stim","","[""<div class = centerbox><div class = digit-span-text>8</div></div>"",""<div class = centerbox><div class = digit-span-text>4</div></div>"",""<div class = centerbox><div class = digit-span-text>9</div></div>"",""<div class = centerbox><div class = digit-span-text>3</div></div>""]","[-1]","none","[1000,1000,1000,1000]","4800","0","test","8,4,9,3","4","","","","",""
"single-stim-button","78","374321","0.0-15.0-5.0","1113","digit-span","true","0","","3281","","","response","","","","","","3281","1000","test","8,4,9,3","4","SubmitButton","3281","8,4,9,3","reverse","false"
"html-keyboard-response","79","375324","0.0-16.0-0.0","1113","digit-span","true","0","","null","<div class = centerbox><div class = center-text>5 Digits</p></div>","null","test_intro","","","","","","","","","","","","","","",""
"poldrack-multi-stim-multi-response","80","382328","0.0-16.0-1.0","1113","digit-span","true","0","","[-1]","","","stim","","[""<div class = centerbox><div class = digit-span-text>4</div></div>"",""<div class = centerbox><div class = digit-span-text>1</div></div>"",""<div class = centerbox><div class = digit-span-text>3</div></div>"",""<div class = centerbox><div class = digit-span-text>5</div></div>"",""<div class = centerbox><div class = digit-span-text>7</div></div>""]","[-1]","none","[1000,1000,1000,1000,1000]","6000","0","test","4,1,3,5,7","5","","","","",""
"single-stim-button","81","387351","0.0-16.0-2.0","1113","digit-span","true","0","","5021","","","response","","","","","","5021","1000","test","4,1,3,5,7","5","SubmitButton","5021","7,5,3,1,4","reverse","true"
"html-keyboard-response","82","388353","0.0-16.0-3.0","1113","digit-span","true","0","","null","<div class = centerbox><div class = center-text>5 Digits</p></div>","null","test_intro","","","","","","","","","","","","","","",""
"poldrack-multi-stim-multi-response","83","395358","0.0-16.0-4.0","1113","digit-span","true","0","","[-1]","","","stim","","[""<div class = centerbox><div class = digit-span-text>9</div></div>"",""<div class = centerbox><div class = digit-span-text>7</div></div>"",""<div class = centerbox><div class = digit-span-text>8</div></div>"",""<div class = centerbox><div class = digit-span-text>5</div></div>"",""<div class = centerbox><div class = digit-span-text>2</div></div>""]","[-1]","none","[1000,1000,1000,1000,1000]","6000","0","test","9,7,8,5,2","5","","","","",""
"single-stim-button","84","403930","0.0-16.0-5.0","1113","digit-span","true","0","","8570","","","response","","","","","","8570","1000","test","9,7,8,5,2","5","SubmitButton","8570","2,5,8,7,9","reverse","true"
"html-keyboard-response","85","404932","0.0-17.0-0.0","1113","digit-span","true","0","","null","<div class = centerbox><div class = center-text>6 Digits</p></div>","null","test_intro","","","","","","","","","","","","","","",""
"poldrack-multi-stim-multi-response","86","413136","0.0-17.0-1.0","1113","digit-span","true","0","","[-1]","","","stim","","[""<div class = centerbox><div class = digit-span-text>1</div></div>"",""<div class = centerbox><div class = digit-span-text>6</div></div>"",""<div class = centerbox><div class = digit-span-text>5</div></div>"",""<div class = centerbox><div class = digit-span-text>2</div></div>"",""<div class = centerbox><div class = digit-span-text>9</div></div>"",""<div class = centerbox><div class = digit-span-text>8</div></div>""]","[-1]","none","[1000,1000,1000,1000,1000,1000]","7200","0","test","1,6,5,2,9,8","6","","","","",""
"single-stim-button","87","418601","0.0-17.0-2.0","1113","digit-span","true","0","","5463","","","response","","","","","","5463","1000","test","1,6,5,2,9,8","6","SubmitButton","5463","8,9,5,2,6,1","reverse","false"
"html-keyboard-response","88","419604","0.0-17.0-3.0","1113","digit-span","true","0","","null","<div class = centerbox><div class = center-text>6 Digits</p></div>","null","test_intro","","","","","","","","","","","","","","",""
"poldrack-multi-stim-multi-response","89","427808","0.0-17.0-4.0","1113","digit-span","true","0","","[-1]","","","stim","","[""<div class = centerbox><div class = digit-span-text>3</div></div>"",""<div class = centerbox><div class = digit-span-text>6</div></div>"",""<div class = centerbox><div class = digit-span-text>7</div></div>"",""<div class = centerbox><div class = digit-span-text>1</div></div>"",""<div class = centerbox><div class = digit-span-text>9</div></div>"",""<div class = centerbox><div class = digit-span-text>4</div></div>""]","[-1]","none","[1000,1000,1000,1000,1000,1000]","7200","0","test","3,6,7,1,9,4","6","","","","",""
"single-stim-button","90","433420","0.0-17.0-5.0","1113","digit-span","true","0","","5607","","","response","","","","","","5607","1000","test","3,6,7,1,9,4","6","SubmitButton","5607","4,9,1,7,6,3","reverse","true"
"html-keyboard-response","91","434423","0.0-18.0-0.0","1113","digit-span","true","0","","null","<div class = centerbox><div class = center-text>7 Digits</p></div>","null","test_intro","","","","","","","","","","","","","","",""
"poldrack-multi-stim-multi-response","92","443826","0.0-18.0-1.0","1113","digit-span","true","0","","[-1]","","","stim","","[""<div class = centerbox><div class = digit-span-text>8</div></div>"",""<div class = centerbox><div class = digit-span-text>5</div></div>"",""<div class = centerbox><div class = digit-span-text>9</div></div>"",""<div class = centerbox><div class = digit-span-text>2</div></div>"",""<div class = centerbox><div class = digit-span-text>3</div></div>"",""<div class = centerbox><div class = digit-span-text>4</div></div>"",""<div class = centerbox><div class = digit-span-text>2</div></div>""]","[-1]","none","[1000,1000,1000,1000,1000,1000,1000]","8400","0","test","8,5,9,2,3,4,2","7","","","","",""
"single-stim-button","93","451410","0.0-18.0-2.0","1113","digit-span","true","0","","7582","","","response","","","","","","7582","1000","test","8,5,9,2,3,4,2","7","SubmitButton","7582","3,4,1,8,7,6,5","reverse","false"
"html-keyboard-response","94","452412","0.0-18.0-3.0","1113","digit-span","true","0","","null","<div class = centerbox><div class = center-text>7 Digits</p></div>","null","test_intro","","","","","","","","","","","","","","",""
"poldrack-multi-stim-multi-response","95","461817","0.0-18.0-4.0","1113","digit-span","true","0","","[-1]","","","stim","","[""<div class = centerbox><div class = digit-span-text>4</div></div>"",""<div class = centerbox><div class = digit-span-text>5</div></div>"",""<div class = centerbox><div class = digit-span-text>7</div></div>"",""<div class = centerbox><div class = digit-span-text>9</div></div>"",""<div class = centerbox><div class = digit-span-text>2</div></div>"",""<div class = centerbox><div class = digit-span-text>8</div></div>"",""<div class = centerbox><div class = digit-span-text>1</div></div>""]","[-1]","none","[1000,1000,1000,1000,1000,1000,1000]","8400","0","test","4,5,7,9,2,8,1","7","","","","",""
"single-stim-button","96","468973","0.0-18.0-5.0","1113","digit-span","true","0","","7153","","","response","","","","","","7153","1000","test","4,5,7,9,2,8,1","7","SubmitButton","7153","1,2,9,5,7,4","reverse","false"
"image-keyboard-response","97","471074","0.0-20.0","1113","digit-span","true","0","","2098.9000000059605","img/trophy2.jpeg","13","end","","","","","","","","","","","","","","",""
