"trial_type","trial_index","time_elapsed","internal_node_id","subject","exp_id","full_screen","focus_shifts","success","rt","stimulus","key_press","trial_id","view_history","stimuli","key_presses","possible_responses","stim_durations","block_duration","timing_post_trial","exp_stage","sequence","num_digits","mouse_click","stim_duration","response","condition","correct"
"pavlovia","0","2274","0.0-0.0","1196","digit-span","true","0","","","","","","","","","","","","","","","","","","","",""
"fullscreen","1","7882","0.0-1.0","1196","digit-span","true","0","true","","","","","","","","","","","","","","","","","","",""
"html-keyboard-response","2","21146","0.0-2.0-0.0","1196","digit-span","true","0","","13261.599999999627","<div class = centerbox><p class = center-block-text>Welcome to the number game! It will take less than 5 minutes. Press <strong>""Enter/Return""</strong> to begin.</p></div>","13","instruction","","","","","","","","","","","","","","",""
"instructions","3","32061","0.0-2.0-1.0","1196","digit-span","true","0","","10914.399999999907","","","instruction","[{""page_index"":0,""viewing_time"":10913.899999999907}]","","","","","","","","","","","","","",""
"instructions","4","42357","0.0-2.0-2.0","1196","digit-span","true","0","","9293.899999999907","","","instruction","[{""page_index"":0,""viewing_time"":9293.5}]","","","","","","","","","","","","","",""
"html-keyboard-response","5","44363","0.0-3.0-0.0","1196","digit-span","true","0","","null","<div class = centerbox><div class = center-text>2 Digits</p></div>","null","test_intro","","","","","","","","","","","","","","",""
"poldrack-multi-stim-multi-response","6","47771","0.0-3.0-1.0","1196","digit-span","true","0","","[-1]","","","stim","","[""<div class = centerbox><div class = digit-span-text>2</div></div>"",""<div class = centerbox><div class = digit-span-text>9</div></div>""]","[-1]","none","[1000,1000]","2400","0","test","2,9","2","","","","",""
"single-stim-button","7","50527","0.0-3.0-2.0","1196","digit-span","true","0","","2753","","","response","","","","","","2753","1000","test","2,9","2","SubmitButton","2753","2,9","forward","true"
"html-keyboard-response","8","51529","0.0-3.0-3.0","1196","digit-span","true","0","","null","<div class = centerbox><div class = center-text>2 Digits</p></div>","null","test_intro","","","","","","","","","","","","","","",""
"poldrack-multi-stim-multi-response","9","54934","0.0-3.0-4.0","1196","digit-span","true","0","","[-1]","","","stim","","[""<div class = centerbox><div class = digit-span-text>4</div></div>"",""<div class = centerbox><div class = digit-span-text>6</div></div>""]","[-1]","none","[1000,1000]","2400","0","test","4,6","2","","","","",""
"single-stim-button","10","57359","0.0-3.0-5.0","1196","digit-span","true","0","","2424","","","response","","","","","","2424","1000","test","4,6","2","SubmitButton","2424","4,6","forward","true"
"html-keyboard-response","11","58362","0.0-4.0-0.0","1196","digit-span","true","0","","null","<div class = centerbox><div class = center-text>3 Digits</p></div>","null","test_intro","","","","","","","","","","","","","","",""
"poldrack-multi-stim-multi-response","12","62966","0.0-4.0-1.0","1196","digit-span","true","0","","[-1]","","","stim","","[""<div class = centerbox><div class = digit-span-text>3</div></div>"",""<div class = centerbox><div class = digit-span-text>8</div></div>"",""<div class = centerbox><div class = digit-span-text>6</div></div>""]","[-1]","none","[1000,1000,1000]","3600","0","test","3,8,6","3","","","","",""
"single-stim-button","13","66394","0.0-4.0-2.0","1196","digit-span","true","0","","3427","","","response","","","","","","3427","1000","test","3,8,6","3","SubmitButton","3427","3,8,6","forward","true"
"html-keyboard-response","14","67397","0.0-4.0-3.0","1196","digit-span","true","0","","null","<div class = centerbox><div class = center-text>3 Digits</p></div>","null","test_intro","","","","","","","","","","","","","","",""
"poldrack-multi-stim-multi-response","15","72000","0.0-4.0-4.0","1196","digit-span","true","0","","[-1]","","","stim","","[""<div class = centerbox><div class = digit-span-text>6</div></div>"",""<div class = centerbox><div class = digit-span-text>1</div></div>"",""<div class = centerbox><div class = digit-span-text>2</div></div>""]","[-1]","none","[1000,1000,1000]","3600","0","test","6,1,2","3","","","","",""
"single-stim-button","16","74484","0.0-4.0-5.0","1196","digit-span","true","0","","2483","","","response","","","","","","2483","1000","test","6,1,2","3","SubmitButton","2483","6,1,2","forward","true"
"html-keyboard-response","17","75487","0.0-5.0-0.0","1196","digit-span","true","0","","null","<div class = centerbox><div class = center-text>4 Digits</p></div>","null","test_intro","","","","","","","","","","","","","","",""
"poldrack-multi-stim-multi-response","18","81290","0.0-5.0-1.0","1196","digit-span","true","0","","[-1]","","","stim","","[""<div class = centerbox><div class = digit-span-text>3</div></div>"",""<div class = centerbox><div class = digit-span-text>4</div></div>"",""<div class = centerbox><div class = digit-span-text>1</div></div>"",""<div class = centerbox><div class = digit-span-text>7</div></div>""]","[-1]","none","[1000,1000,1000,1000]","4800","0","test","3,4,1,7","4","","","","",""
"single-stim-button","19","85229","0.0-5.0-2.0","1196","digit-span","true","0","","3937","","","response","","","","","","3937","1000","test","3,4,1,7","4","SubmitButton","3937","3,4,1,7","forward","true"
"html-keyboard-response","20","86231","0.0-5.0-3.0","1196","digit-span","true","0","","null","<div class = centerbox><div class = center-text>4 Digits</p></div>","null","test_intro","","","","","","","","","","","","","","",""
"poldrack-multi-stim-multi-response","21","92035","0.0-5.0-4.0","1196","digit-span","true","0","","[-1]","","","stim","","[""<div class = centerbox><div class = digit-span-text>6</div></div>"",""<div class = centerbox><div class = digit-span-text>1</div></div>"",""<div class = centerbox><div class = digit-span-text>5</div></div>"",""<div class = centerbox><div class = digit-span-text>8</div></div>""]","[-1]","none","[1000,1000,1000,1000]","4800","0","test","6,1,5,8","4","","","","",""
"single-stim-button","22","95617","0.0-5.0-5.0","1196","digit-span","true","0","","3580","","","response","","","","","","3580","1000","test","6,1,5,8","4","SubmitButton","3580","6,1,5,8","forward","true"
"html-keyboard-response","23","96619","0.0-6.0-0.0","1196","digit-span","true","0","","null","<div class = centerbox><div class = center-text>5 Digits</p></div>","null","test_intro","","","","","","","","","","","","","","",""
"poldrack-multi-stim-multi-response","24","103623","0.0-6.0-1.0","1196","digit-span","true","0","","[-1]","","","stim","","[""<div class = centerbox><div class = digit-span-text>8</div></div>"",""<div class = centerbox><div class = digit-span-text>4</div></div>"",""<div class = centerbox><div class = digit-span-text>2</div></div>"",""<div class = centerbox><div class = digit-span-text>3</div></div>"",""<div class = centerbox><div class = digit-span-text>9</div></div>""]","[-1]","none","[1000,1000,1000,1000,1000]","6000","0","test","8,4,2,3,9","5","","","","",""
"single-stim-button","25","107259","0.0-6.0-2.0","1196","digit-span","true","0","","3635","","","response","","","","","","3635","1000","test","8,4,2,3,9","5","SubmitButton","3635","8,4,2,3,9","forward","true"
"html-keyboard-response","26","108262","0.0-6.0-3.0","1196","digit-span","true","0","","null","<div class = centerbox><div class = center-text>5 Digits</p></div>","null","test_intro","","","","","","","","","","","","","","",""
"poldrack-multi-stim-multi-response","27","115265","0.0-6.0-4.0","1196","digit-span","true","0","","[-1]","","","stim","","[""<div class = centerbox><div class = digit-span-text>5</div></div>"",""<div class = centerbox><div class = digit-span-text>2</div></div>"",""<div class = centerbox><div class = digit-span-text>1</div></div>"",""<div class = centerbox><div class = digit-span-text>8</div></div>"",""<div class = centerbox><div class = digit-span-text>6</div></div>""]","[-1]","none","[1000,1000,1000,1000,1000]","6000","0","test","5,2,1,8,6","5","","","","",""
"single-stim-button","28","129229","0.0-6.0-5.0","1196","digit-span","true","0","","13963","","","response","","","","","","13963","1000","test","5,2,1,8,6","5","SubmitButton","13963","5,4,1,8,6","forward","false"
"html-keyboard-response","29","130232","0.0-7.0-0.0","1196","digit-span","true","0","","null","<div class = centerbox><div class = center-text>6 Digits</p></div>","null","test_intro","","","","","","","","","","","","","","",""
"poldrack-multi-stim-multi-response","30","138436","0.0-7.0-1.0","1196","digit-span","true","0","","[-1]","","","stim","","[""<div class = centerbox><div class = digit-span-text>3</div></div>"",""<div class = centerbox><div class = digit-span-text>8</div></div>"",""<div class = centerbox><div class = digit-span-text>9</div></div>"",""<div class = centerbox><div class = digit-span-text>1</div></div>"",""<div class = centerbox><div class = digit-span-text>7</div></div>"",""<div class = centerbox><div class = digit-span-text>4</div></div>""]","[-1]","none","[1000,1000,1000,1000,1000,1000]","7200","0","test","3,8,9,1,7,4","6","","","","",""
"single-stim-button","31","145061","0.0-7.0-2.0","1196","digit-span","true","0","","6623","","","response","","","","","","6623","1000","test","3,8,9,1,7,4","6","SubmitButton","6623","3,8,9,1,7,4","forward","true"
"html-keyboard-response","32","146063","0.0-7.0-3.0","1196","digit-span","true","0","","null","<div class = centerbox><div class = center-text>6 Digits</p></div>","null","test_intro","","","","","","","","","","","","","","",""
"poldrack-multi-stim-multi-response","33","154268","0.0-7.0-4.0","1196","digit-span","true","0","","[-1]","","","stim","","[""<div class = centerbox><div class = digit-span-text>7</div></div>"",""<div class = centerbox><div class = digit-span-text>9</div></div>"",""<div class = centerbox><div class = digit-span-text>6</div></div>"",""<div class = centerbox><div class = digit-span-text>4</div></div>"",""<div class = centerbox><div class = digit-span-text>8</div></div>"",""<div class = centerbox><div class = digit-span-text>3</div></div>""]","[-1]","none","[1000,1000,1000,1000,1000,1000]","7200","0","test","7,9,6,4,8,3","6","","","","",""
"single-stim-button","34","160609","0.0-7.0-5.0","1196","digit-span","true","0","","6341","","","response","","","","","","6341","1000","test","7,9,6,4,8,3","6","SubmitButton","6341","7,9,6,4,8,3","forward","true"
"html-keyboard-response","35","161612","0.0-8.0-0.0","1196","digit-span","true","0","","null","<div class = centerbox><div class = center-text>7 Digits</p></div>","null","test_intro","","","","","","","","","","","","","","",""
"poldrack-multi-stim-multi-response","36","171015","0.0-8.0-1.0","1196","digit-span","true","0","","[-1]","","","stim","","[""<div class = centerbox><div class = digit-span-text>5</div></div>"",""<div class = centerbox><div class = digit-span-text>1</div></div>"",""<div class = centerbox><div class = digit-span-text>7</div></div>"",""<div class = centerbox><div class = digit-span-text>4</div></div>"",""<div class = centerbox><div class = digit-span-text>2</div></div>"",""<div class = centerbox><div class = digit-span-text>3</div></div>"",""<div class = centerbox><div class = digit-span-text>8</div></div>""]","[-1]","none","[1000,1000,1000,1000,1000,1000,1000]","8400","0","test","5,1,7,4,2,3,8","7","","","","",""
"single-stim-button","37","180031","0.0-8.0-2.0","1196","digit-span","true","0","","9014","","","response","","","","","","9014","1000","test","5,1,7,4,2,3,8","7","SubmitButton","9014","5,1,7,4,2,3,8","forward","true"
"html-keyboard-response","38","181033","0.0-8.0-3.0","1196","digit-span","true","0","","null","<div class = centerbox><div class = center-text>7 Digits</p></div>","null","test_intro","","","","","","","","","","","","","","",""
"poldrack-multi-stim-multi-response","39","190436","0.0-8.0-4.0","1196","digit-span","true","0","","[-1]","","","stim","","[""<div class = centerbox><div class = digit-span-text>9</div></div>"",""<div class = centerbox><div class = digit-span-text>8</div></div>"",""<div class = centerbox><div class = digit-span-text>5</div></div>"",""<div class = centerbox><div class = digit-span-text>2</div></div>"",""<div class = centerbox><div class = digit-span-text>1</div></div>"",""<div class = centerbox><div class = digit-span-text>6</div></div>"",""<div class = centerbox><div class = digit-span-text>3</div></div>""]","[-1]","none","[1000,1000,1000,1000,1000,1000,1000]","8400","0","test","9,8,5,2,1,6,3","7","","","","",""
"single-stim-button","40","198629","0.0-8.0-5.0","1196","digit-span","true","0","","8191","","","response","","","","","","8191","1000","test","9,8,5,2,1,6,3","7","SubmitButton","8191","9,8,5,2,1,6,3","forward","true"
"html-keyboard-response","41","199633","0.0-9.0-0.0","1196","digit-span","true","0","","null","<div class = centerbox><div class = center-text>8 Digits</p></div>","null","test_intro","","","","","","","","","","","","","","",""
"poldrack-multi-stim-multi-response","42","210237","0.0-9.0-1.0","1196","digit-span","true","0","","[-1]","","","stim","","[""<div class = centerbox><div class = digit-span-text>1</div></div>"",""<div class = centerbox><div class = digit-span-text>6</div></div>"",""<div class = centerbox><div class = digit-span-text>4</div></div>"",""<div class = centerbox><div class = digit-span-text>5</div></div>"",""<div class = centerbox><div class = digit-span-text>9</div></div>"",""<div class = centerbox><div class = digit-span-text>7</div></div>"",""<div class = centerbox><div class = digit-span-text>6</div></div>"",""<div class = centerbox><div class = digit-span-text>3</div></div>""]","[-1]","none","[1000,1000,1000,1000,1000,1000,1000,1000]","9600","0","test","1,6,4,5,9,7,6,3","8","","","","",""
"single-stim-button","43","220322","0.0-9.0-2.0","1196","digit-span","true","0","","10083","","","response","","","","","","10083","1000","test","1,6,4,5,9,7,6,3","8","SubmitButton","10083","1,6,4,5,7,6,9","forward","false"
"html-keyboard-response","44","221323","0.0-9.0-3.0","1196","digit-span","true","0","","null","<div class = centerbox><div class = center-text>8 Digits</p></div>","null","test_intro","","","","","","","","","","","","","","",""
"poldrack-multi-stim-multi-response","45","231929","0.0-9.0-4.0","1196","digit-span","true","0","","[-1]","","","stim","","[""<div class = centerbox><div class = digit-span-text>2</div></div>"",""<div class = centerbox><div class = digit-span-text>9</div></div>"",""<div class = centerbox><div class = digit-span-text>7</div></div>"",""<div class = centerbox><div class = digit-span-text>6</div></div>"",""<div class = centerbox><div class = digit-span-text>3</div></div>"",""<div class = centerbox><div class = digit-span-text>1</div></div>"",""<div class = centerbox><div class = digit-span-text>5</div></div>"",""<div class = centerbox><div class = digit-span-text>4</div></div>""]","[-1]","none","[1000,1000,1000,1000,1000,1000,1000,1000]","9600","0","test","2,9,7,6,3,1,5,4","8","","","","",""
"single-stim-button","46","243877","0.0-9.0-5.0","1196","digit-span","true","0","","11947","","","response","","","","","","11947","1000","test","2,9,7,6,3,1,5,4","8","SubmitButton","11947","2,9,7,6,1,3,4","forward","false"
"html-keyboard-response","47","250480","0.0-11.0","1196","digit-span","true","0","","6601.899999999907","<div class = centerbox><p class = block-text>Now, you will see some numbers, but this time you will enter them <strong>backward</strong>.<br><br>For example, you see <strong>“1—5”</strong>, and you will enter <strong>“5—1”</strong>.<br><br><br>Press <strong>""Enter/Return""</strong> to begin.</p></div>","13","start_reverse","","","","","","","","","","","","","","",""
"html-keyboard-response","48","251482","0.0-12.0-0.0","1196","digit-span","true","0","","null","<div class = centerbox><div class = center-text>2 Digits</p></div>","null","test_intro","","","","","","","","","","","","","","",""
"poldrack-multi-stim-multi-response","49","254884","0.0-12.0-1.0","1196","digit-span","true","0","","[-1]","","","stim","","[""<div class = centerbox><div class = digit-span-text>8</div></div>"",""<div class = centerbox><div class = digit-span-text>2</div></div>""]","[-1]","none","[1000,1000]","2400","0","test","8,2","2","","","","",""
"single-stim-button","50","258907","0.0-12.0-2.0","1196","digit-span","true","0","","4023","","","response","","","","","","4023","1000","test","8,2","2","SubmitButton","4023","2,8","practice","true"
"html-keyboard-response","51","268910","0.0-12.0-3.0","1196","digit-span","true","0","","null","<div class = centerbox><div class = center-block-text><span style=""color:green"">Correct!</span></div></div>","null","feedback","","","","","","","","","","","","","","",""
"html-keyboard-response","52","269912","0.0-12.0-4.0","1196","digit-span","true","0","","null","<div class = centerbox><div class = center-text>2 Digits</p></div>","null","test_intro","","","","","","","","","","","","","","",""
"poldrack-multi-stim-multi-response","53","273315","0.0-12.0-5.0","1196","digit-span","true","0","","[-1]","","","stim","","[""<div class = centerbox><div class = digit-span-text>5</div></div>"",""<div class = centerbox><div class = digit-span-text>6</div></div>""]","[-1]","none","[1000,1000]","2400","0","test","5,6","2","","","","",""
"single-stim-button","54","274882","0.0-12.0-6.0","1196","digit-span","true","0","","1566","","","response","","","","","","1566","1000","test","5,6","2","SubmitButton","1566","6,5","practice","true"
"html-keyboard-response","55","275884","0.0-13.0-0.0","1196","digit-span","true","0","","null","<div class = centerbox><div class = center-text>2 Digits</p></div>","null","test_intro","","","","","","","","","","","","","","",""
"poldrack-multi-stim-multi-response","56","279288","0.0-13.0-1.0","1196","digit-span","true","0","","[-1]","","","stim","","[""<div class = centerbox><div class = digit-span-text>2</div></div>"",""<div class = centerbox><div class = digit-span-text>5</div></div>""]","[-1]","none","[1000,1000]","2400","0","test","2,5","2","","","","",""
"single-stim-button","57","281108","0.0-13.0-2.0","1196","digit-span","true","0","","1818","","","response","","","","","","1818","1000","test","2,5","2","SubmitButton","1818","5,2","reverse","true"
"html-keyboard-response","58","282111","0.0-13.0-3.0","1196","digit-span","true","0","","null","<div class = centerbox><div class = center-text>2 Digits</p></div>","null","test_intro","","","","","","","","","","","","","","",""
"poldrack-multi-stim-multi-response","59","285519","0.0-13.0-4.0","1196","digit-span","true","0","","[-1]","","","stim","","[""<div class = centerbox><div class = digit-span-text>6</div></div>"",""<div class = centerbox><div class = digit-span-text>3</div></div>""]","[-1]","none","[1000,1000]","2400","0","test","6,3","2","","","","",""
"single-stim-button","60","290730","0.0-13.0-5.0","1196","digit-span","true","0","","5209","","","response","","","","","","5209","1000","test","6,3","2","SubmitButton","5209","3,6","reverse","true"
"html-keyboard-response","61","291732","0.0-14.0-0.0","1196","digit-span","true","0","","null","<div class = centerbox><div class = center-text>3 Digits</p></div>","null","test_intro","","","","","","","","","","","","","","",""
"poldrack-multi-stim-multi-response","62","296335","0.0-14.0-1.0","1196","digit-span","true","0","","[-1]","","","stim","","[""<div class = centerbox><div class = digit-span-text>5</div></div>"",""<div class = centerbox><div class = digit-span-text>7</div></div>"",""<div class = centerbox><div class = digit-span-text>4</div></div>""]","[-1]","none","[1000,1000,1000]","3600","0","test","5,7,4","3","","","","",""
"single-stim-button","63","298825","0.0-14.0-2.0","1196","digit-span","true","0","","2489","","","response","","","","","","2489","1000","test","5,7,4","3","SubmitButton","2489","4,7,5","reverse","true"
"html-keyboard-response","64","299828","0.0-14.0-3.0","1196","digit-span","true","0","","null","<div class = centerbox><div class = center-text>3 Digits</p></div>","null","test_intro","","","","","","","","","","","","","","",""
"poldrack-multi-stim-multi-response","65","304431","0.0-14.0-4.0","1196","digit-span","true","0","","[-1]","","","stim","","[""<div class = centerbox><div class = digit-span-text>2</div></div>"",""<div class = centerbox><div class = digit-span-text>5</div></div>"",""<div class = centerbox><div class = digit-span-text>9</div></div>""]","[-1]","none","[1000,1000,1000]","3600","0","test","2,5,9","3","","","","",""
"single-stim-button","66","310229","0.0-14.0-5.0","1196","digit-span","true","0","","5796","","","response","","","","","","5796","1000","test","2,5,9","3","SubmitButton","5796","9,5,2","reverse","true"
"html-keyboard-response","67","311231","0.0-15.0-0.0","1196","digit-span","true","0","","null","<div class = centerbox><div class = center-text>4 Digits</p></div>","null","test_intro","","","","","","","","","","","","","","",""
"poldrack-multi-stim-multi-response","68","317035","0.0-15.0-1.0","1196","digit-span","true","0","","[-1]","","","stim","","[""<div class = centerbox><div class = digit-span-text>7</div></div>"",""<div class = centerbox><div class = digit-span-text>2</div></div>"",""<div class = centerbox><div class = digit-span-text>9</div></div>"",""<div class = centerbox><div class = digit-span-text>6</div></div>""]","[-1]","none","[1000,1000,1000,1000]","4800","0","test","7,2,9,6","4","","","","",""
"single-stim-button","69","323411","0.0-15.0-2.0","1196","digit-span","true","0","","6374","","","response","","","","","","6374","1000","test","7,2,9,6","4","SubmitButton","6374","6,9,2,7","reverse","true"
"html-keyboard-response","70","324413","0.0-15.0-3.0","1196","digit-span","true","0","","null","<div class = centerbox><div class = center-text>4 Digits</p></div>","null","test_intro","","","","","","","","","","","","","","",""
"poldrack-multi-stim-multi-response","71","330216","0.0-15.0-4.0","1196","digit-span","true","0","","[-1]","","","stim","","[""<div class = centerbox><div class = digit-span-text>8</div></div>"",""<div class = centerbox><div class = digit-span-text>4</div></div>"",""<div class = centerbox><div class = digit-span-text>9</div></div>"",""<div class = centerbox><div class = digit-span-text>3</div></div>""]","[-1]","none","[1000,1000,1000,1000]","4800","0","test","8,4,9,3","4","","","","",""
"single-stim-button","72","336634","0.0-15.0-5.0","1196","digit-span","true","0","","6416","","","response","","","","","","6416","1000","test","8,4,9,3","4","SubmitButton","6416","3,9,4,8","reverse","true"
"html-keyboard-response","73","337636","0.0-16.0-0.0","1196","digit-span","true","0","","null","<div class = centerbox><div class = center-text>5 Digits</p></div>","null","test_intro","","","","","","","","","","","","","","",""
"poldrack-multi-stim-multi-response","74","344641","0.0-16.0-1.0","1196","digit-span","true","0","","[-1]","","","stim","","[""<div class = centerbox><div class = digit-span-text>4</div></div>"",""<div class = centerbox><div class = digit-span-text>1</div></div>"",""<div class = centerbox><div class = digit-span-text>3</div></div>"",""<div class = centerbox><div class = digit-span-text>5</div></div>"",""<div class = centerbox><div class = digit-span-text>7</div></div>""]","[-1]","none","[1000,1000,1000,1000,1000]","6000","0","test","4,1,3,5,7","5","","","","",""
"single-stim-button","75","350603","0.0-16.0-2.0","1196","digit-span","true","0","","5960","","","response","","","","","","5960","1000","test","4,1,3,5,7","5","SubmitButton","5960","7,5,3,1,4","reverse","true"
"html-keyboard-response","76","351606","0.0-16.0-3.0","1196","digit-span","true","0","","null","<div class = centerbox><div class = center-text>5 Digits</p></div>","null","test_intro","","","","","","","","","","","","","","",""
"poldrack-multi-stim-multi-response","77","358610","0.0-16.0-4.0","1196","digit-span","true","0","","[-1]","","","stim","","[""<div class = centerbox><div class = digit-span-text>9</div></div>"",""<div class = centerbox><div class = digit-span-text>7</div></div>"",""<div class = centerbox><div class = digit-span-text>8</div></div>"",""<div class = centerbox><div class = digit-span-text>5</div></div>"",""<div class = centerbox><div class = digit-span-text>2</div></div>""]","[-1]","none","[1000,1000,1000,1000,1000]","6000","0","test","9,7,8,5,2","5","","","","",""
"single-stim-button","78","377140","0.0-16.0-5.0","1196","digit-span","true","0","","18529","","","response","","","","","","18529","1000","test","9,7,8,5,2","5","SubmitButton","18529","2,5,8,7,9","reverse","true"
"html-keyboard-response","79","378141","0.0-17.0-0.0","1196","digit-span","true","0","","null","<div class = centerbox><div class = center-text>6 Digits</p></div>","null","test_intro","","","","","","","","","","","","","","",""
"poldrack-multi-stim-multi-response","80","386344","0.0-17.0-1.0","1196","digit-span","true","0","","[-1]","","","stim","","[""<div class = centerbox><div class = digit-span-text>1</div></div>"",""<div class = centerbox><div class = digit-span-text>6</div></div>"",""<div class = centerbox><div class = digit-span-text>5</div></div>"",""<div class = centerbox><div class = digit-span-text>2</div></div>"",""<div class = centerbox><div class = digit-span-text>9</div></div>"",""<div class = centerbox><div class = digit-span-text>8</div></div>""]","[-1]","none","[1000,1000,1000,1000,1000,1000]","7200","0","test","1,6,5,2,9,8","6","","","","",""
"single-stim-button","81","390841","0.0-17.0-2.0","1196","digit-span","true","0","","4495","","","response","","","","","","4495","1000","test","1,6,5,2,9,8","6","SubmitButton","4495","8,9,2,5,1,6","reverse","false"
"html-keyboard-response","82","391844","0.0-17.0-3.0","1196","digit-span","true","0","","null","<div class = centerbox><div class = center-text>6 Digits</p></div>","null","test_intro","","","","","","","","","","","","","","",""
"poldrack-multi-stim-multi-response","83","400048","0.0-17.0-4.0","1196","digit-span","true","0","","[-1]","","","stim","","[""<div class = centerbox><div class = digit-span-text>3</div></div>"",""<div class = centerbox><div class = digit-span-text>6</div></div>"",""<div class = centerbox><div class = digit-span-text>7</div></div>"",""<div class = centerbox><div class = digit-span-text>1</div></div>"",""<div class = centerbox><div class = digit-span-text>9</div></div>"",""<div class = centerbox><div class = digit-span-text>4</div></div>""]","[-1]","none","[1000,1000,1000,1000,1000,1000]","7200","0","test","3,6,7,1,9,4","6","","","","",""
"single-stim-button","84","412610","0.0-17.0-5.0","1196","digit-span","true","0","","12561","","","response","","","","","","12561","1000","test","3,6,7,1,9,4","6","SubmitButton","12561","4,9,1,7,6,3","reverse","true"
"html-keyboard-response","85","413613","0.0-18.0-0.0","1196","digit-span","true","0","","null","<div class = centerbox><div class = center-text>7 Digits</p></div>","null","test_intro","","","","","","","","","","","","","","",""
"poldrack-multi-stim-multi-response","86","423019","0.0-18.0-1.0","1196","digit-span","true","0","","[-1]","","","stim","","[""<div class = centerbox><div class = digit-span-text>8</div></div>"",""<div class = centerbox><div class = digit-span-text>5</div></div>"",""<div class = centerbox><div class = digit-span-text>9</div></div>"",""<div class = centerbox><div class = digit-span-text>2</div></div>"",""<div class = centerbox><div class = digit-span-text>3</div></div>"",""<div class = centerbox><div class = digit-span-text>4</div></div>"",""<div class = centerbox><div class = digit-span-text>2</div></div>""]","[-1]","none","[1000,1000,1000,1000,1000,1000,1000]","8400","0","test","8,5,9,2,3,4,2","7","","","","",""
"single-stim-button","87","443060","0.0-18.0-2.0","1196","digit-span","true","0","","20039","","","response","","","","","","20039","1000","test","8,5,9,2,3,4,2","7","SubmitButton","20039","2,4,5,8,6,5","reverse","false"
"html-keyboard-response","88","444062","0.0-18.0-3.0","1196","digit-span","true","0","","null","<div class = centerbox><div class = center-text>7 Digits</p></div>","null","test_intro","","","","","","","","","","","","","","",""
"poldrack-multi-stim-multi-response","89","453465","0.0-18.0-4.0","1196","digit-span","true","0","","[-1]","","","stim","","[""<div class = centerbox><div class = digit-span-text>4</div></div>"",""<div class = centerbox><div class = digit-span-text>5</div></div>"",""<div class = centerbox><div class = digit-span-text>7</div></div>"",""<div class = centerbox><div class = digit-span-text>9</div></div>"",""<div class = centerbox><div class = digit-span-text>2</div></div>"",""<div class = centerbox><div class = digit-span-text>8</div></div>"",""<div class = centerbox><div class = digit-span-text>1</div></div>""]","[-1]","none","[1000,1000,1000,1000,1000,1000,1000]","8400","0","test","4,5,7,9,2,8,1","7","","","","",""
"single-stim-button","90","463519","0.0-18.0-5.0","1196","digit-span","true","0","","10052","","","response","","","","","","10052","1000","test","4,5,7,9,2,8,1","7","SubmitButton","10052","1,8,2,9,7,5,4","reverse","true"
"html-keyboard-response","91","464522","0.0-19.0-0.0","1196","digit-span","true","0","","null","<div class = centerbox><div class = center-text>8 Digits</p></div>","null","test_intro","","","","","","","","","","","","","","",""
"poldrack-multi-stim-multi-response","92","475126","0.0-19.0-1.0","1196","digit-span","true","0","","[-1]","","","stim","","[""<div class = centerbox><div class = digit-span-text>6</div></div>"",""<div class = centerbox><div class = digit-span-text>9</div></div>"",""<div class = centerbox><div class = digit-span-text>1</div></div>"",""<div class = centerbox><div class = digit-span-text>6</div></div>"",""<div class = centerbox><div class = digit-span-text>3</div></div>"",""<div class = centerbox><div class = digit-span-text>2</div></div>"",""<div class = centerbox><div class = digit-span-text>5</div></div>"",""<div class = centerbox><div class = digit-span-text>8</div></div>""]","[-1]","none","[1000,1000,1000,1000,1000,1000,1000,1000]","9600","0","test","6,9,1,6,3,2,5,8","8","","","","",""
"single-stim-button","93","488201","0.0-19.0-2.0","1196","digit-span","true","0","","13073","","","response","","","","","","13073","1000","test","6,9,1,6,3,2,5,8","8","SubmitButton","13073","8,5,3,2,6,1,9,6","reverse","false"
"html-keyboard-response","94","489203","0.0-19.0-3.0","1196","digit-span","true","0","","null","<div class = centerbox><div class = center-text>8 Digits</p></div>","null","test_intro","","","","","","","","","","","","","","",""
"poldrack-multi-stim-multi-response","95","499816","0.0-19.0-4.0","1196","digit-span","true","0","","[-1]","","","stim","","[""<div class = centerbox><div class = digit-span-text>3</div></div>"",""<div class = centerbox><div class = digit-span-text>1</div></div>"",""<div class = centerbox><div class = digit-span-text>7</div></div>"",""<div class = centerbox><div class = digit-span-text>9</div></div>"",""<div class = centerbox><div class = digit-span-text>5</div></div>"",""<div class = centerbox><div class = digit-span-text>4</div></div>"",""<div class = centerbox><div class = digit-span-text>8</div></div>"",""<div class = centerbox><div class = digit-span-text>2</div></div>""]","[-1]","none","[1000,1000,1000,1000,1000,1000,1000,1000]","9600","0","test","3,1,7,9,5,4,8,2","8","","","","",""
"single-stim-button","96","506106","0.0-19.0-5.0","1196","digit-span","true","0","","6288","","","response","","","","","","6288","1000","test","3,1,7,9,5,4,8,2","8","SubmitButton","6288","2,8,4,5,7,1,3","reverse","false"
"image-keyboard-response","97","507730","0.0-20.0","1196","digit-span","true","0","","1622.5","img/trophy2.jpeg","13","end","","","","","","","","","","","","","","",""
