"trial_type","trial_index","time_elapsed","internal_node_id","subject","exp_id","full_screen","focus_shifts","success","rt","stimulus","key_press","trial_id","view_history","stimuli","key_presses","possible_responses","stim_durations","block_duration","timing_post_trial","exp_stage","sequence","num_digits","mouse_click","stim_duration","response","condition","correct"
"pavlovia","0","2143","0.0-0.0","1162","digit-span","true","0","","","","","","","","","","","","","","","","","","","",""
"fullscreen","1","6918","0.0-1.0","1162","digit-span","true","0","true","","","","","","","","","","","","","","","","","","",""
"html-keyboard-response","2","13239","0.0-2.0-0.0","1162","digit-span","true","0","","6316.800000000745","<div class = centerbox><p class = center-block-text>Welcome to the number game! It will take less than 5 minutes. Press <strong>""Enter/Return""</strong> to begin.</p></div>","13","instruction","","","","","","","","","","","","","","",""
"instructions","3","24118","0.0-2.0-1.0","1162","digit-span","true","0","","10877.900000000373","","","instruction","[{""page_index"":0,""viewing_time"":10877.099999999627}]","","","","","","","","","","","","","",""
"instructions","4","35340","0.0-2.0-2.0","1162","digit-span","true","0","","10221","","","instruction","[{""page_index"":0,""viewing_time"":10220.199999999255}]","","","","","","","","","","","","","",""
"html-keyboard-response","5","37344","0.0-3.0-0.0","1162","digit-span","true","0","","null","<div class = centerbox><div class = center-text>2 Digits</p></div>","null","test_intro","","","","","","","","","","","","","","",""
"poldrack-multi-stim-multi-response","6","40750","0.0-3.0-1.0","1162","digit-span","true","0","","[-1]","","","stim","","[""<div class = centerbox><div class = digit-span-text>2</div></div>"",""<div class = centerbox><div class = digit-span-text>9</div></div>""]","[-1]","none","[1000,1000]","2400","0","test","2,9","2","","","","",""
"single-stim-button","7","44009","0.0-3.0-2.0","1162","digit-span","true","0","","3257","","","response","","","","","","3257","1000","test","2,9","2","SubmitButton","3257","2,9","forward","true"
"html-keyboard-response","8","45012","0.0-3.0-3.0","1162","digit-span","true","0","","null","<div class = centerbox><div class = center-text>2 Digits</p></div>","null","test_intro","","","","","","","","","","","","","","",""
"poldrack-multi-stim-multi-response","9","48415","0.0-3.0-4.0","1162","digit-span","true","0","","[-1]","","","stim","","[""<div class = centerbox><div class = digit-span-text>4</div></div>"",""<div class = centerbox><div class = digit-span-text>6</div></div>""]","[-1]","none","[1000,1000]","2400","0","test","4,6","2","","","","",""
"single-stim-button","10","51592","0.0-3.0-5.0","1162","digit-span","true","0","","3175","","","response","","","","","","3175","1000","test","4,6","2","SubmitButton","3175","4,6","forward","true"
"html-keyboard-response","11","52594","0.0-4.0-0.0","1162","digit-span","true","0","","null","<div class = centerbox><div class = center-text>3 Digits</p></div>","null","test_intro","","","","","","","","","","","","","","",""
"poldrack-multi-stim-multi-response","12","57197","0.0-4.0-1.0","1162","digit-span","true","0","","[-1]","","","stim","","[""<div class = centerbox><div class = digit-span-text>3</div></div>"",""<div class = centerbox><div class = digit-span-text>8</div></div>"",""<div class = centerbox><div class = digit-span-text>6</div></div>""]","[-1]","none","[1000,1000,1000]","3600","0","test","3,8,6","3","","","","",""
"single-stim-button","13","61722","0.0-4.0-2.0","1162","digit-span","true","0","","4522","","","response","","","","","","4522","1000","test","3,8,6","3","SubmitButton","4522","3,8,6","forward","true"
"html-keyboard-response","14","62724","0.0-4.0-3.0","1162","digit-span","true","0","","null","<div class = centerbox><div class = center-text>3 Digits</p></div>","null","test_intro","","","","","","","","","","","","","","",""
"poldrack-multi-stim-multi-response","15","67327","0.0-4.0-4.0","1162","digit-span","true","0","","[-1]","","","stim","","[""<div class = centerbox><div class = digit-span-text>6</div></div>"",""<div class = centerbox><div class = digit-span-text>1</div></div>"",""<div class = centerbox><div class = digit-span-text>2</div></div>""]","[-1]","none","[1000,1000,1000]","3600","0","test","6,1,2","3","","","","",""
"single-stim-button","16","70484","0.0-4.0-5.0","1162","digit-span","true","0","","3155","","","response","","","","","","3155","1000","test","6,1,2","3","SubmitButton","3155","6,1,2","forward","true"
"html-keyboard-response","17","71486","0.0-5.0-0.0","1162","digit-span","true","0","","null","<div class = centerbox><div class = center-text>4 Digits</p></div>","null","test_intro","","","","","","","","","","","","","","",""
"poldrack-multi-stim-multi-response","18","77289","0.0-5.0-1.0","1162","digit-span","true","0","","[-1]","","","stim","","[""<div class = centerbox><div class = digit-span-text>3</div></div>"",""<div class = centerbox><div class = digit-span-text>4</div></div>"",""<div class = centerbox><div class = digit-span-text>1</div></div>"",""<div class = centerbox><div class = digit-span-text>7</div></div>""]","[-1]","none","[1000,1000,1000,1000]","4800","0","test","3,4,1,7","4","","","","",""
"single-stim-button","19","82854","0.0-5.0-2.0","1162","digit-span","true","0","","5562","","","response","","","","","","5562","1000","test","3,4,1,7","4","SubmitButton","5562","3,4,1,7","forward","true"
"html-keyboard-response","20","83856","0.0-5.0-3.0","1162","digit-span","true","0","","null","<div class = centerbox><div class = center-text>4 Digits</p></div>","null","test_intro","","","","","","","","","","","","","","",""
"poldrack-multi-stim-multi-response","21","89658","0.0-5.0-4.0","1162","digit-span","true","0","","[-1]","","","stim","","[""<div class = centerbox><div class = digit-span-text>6</div></div>"",""<div class = centerbox><div class = digit-span-text>1</div></div>"",""<div class = centerbox><div class = digit-span-text>5</div></div>"",""<div class = centerbox><div class = digit-span-text>8</div></div>""]","[-1]","none","[1000,1000,1000,1000]","4800","0","test","6,1,5,8","4","","","","",""
"single-stim-button","22","93769","0.0-5.0-5.0","1162","digit-span","true","0","","4109","","","response","","","","","","4109","1000","test","6,1,5,8","4","SubmitButton","4109","6,1,5,8","forward","true"
"html-keyboard-response","23","94772","0.0-6.0-0.0","1162","digit-span","true","0","","null","<div class = centerbox><div class = center-text>5 Digits</p></div>","null","test_intro","","","","","","","","","","","","","","",""
"poldrack-multi-stim-multi-response","24","101775","0.0-6.0-1.0","1162","digit-span","true","0","","[-1]","","","stim","","[""<div class = centerbox><div class = digit-span-text>8</div></div>"",""<div class = centerbox><div class = digit-span-text>4</div></div>"",""<div class = centerbox><div class = digit-span-text>2</div></div>"",""<div class = centerbox><div class = digit-span-text>3</div></div>"",""<div class = centerbox><div class = digit-span-text>9</div></div>""]","[-1]","none","[1000,1000,1000,1000,1000]","6000","0","test","8,4,2,3,9","5","","","","",""
"single-stim-button","25","108441","0.0-6.0-2.0","1162","digit-span","true","0","","6664","","","response","","","","","","6664","1000","test","8,4,2,3,9","5","SubmitButton","6664","2,3,8,4,9","forward","false"
"html-keyboard-response","26","109443","0.0-6.0-3.0","1162","digit-span","true","0","","null","<div class = centerbox><div class = center-text>5 Digits</p></div>","null","test_intro","","","","","","","","","","","","","","",""
"poldrack-multi-stim-multi-response","27","116446","0.0-6.0-4.0","1162","digit-span","true","0","","[-1]","","","stim","","[""<div class = centerbox><div class = digit-span-text>5</div></div>"",""<div class = centerbox><div class = digit-span-text>2</div></div>"",""<div class = centerbox><div class = digit-span-text>1</div></div>"",""<div class = centerbox><div class = digit-span-text>8</div></div>"",""<div class = centerbox><div class = digit-span-text>6</div></div>""]","[-1]","none","[1000,1000,1000,1000,1000]","6000","0","test","5,2,1,8,6","5","","","","",""
"single-stim-button","28","120947","0.0-6.0-5.0","1162","digit-span","true","0","","4499","","","response","","","","","","4499","1000","test","5,2,1,8,6","5","SubmitButton","4499","5,2,1,8,6","forward","true"
"html-keyboard-response","29","121949","0.0-7.0-0.0","1162","digit-span","true","0","","null","<div class = centerbox><div class = center-text>6 Digits</p></div>","null","test_intro","","","","","","","","","","","","","","",""
"poldrack-multi-stim-multi-response","30","130152","0.0-7.0-1.0","1162","digit-span","true","0","","[-1]","","","stim","","[""<div class = centerbox><div class = digit-span-text>3</div></div>"",""<div class = centerbox><div class = digit-span-text>8</div></div>"",""<div class = centerbox><div class = digit-span-text>9</div></div>"",""<div class = centerbox><div class = digit-span-text>1</div></div>"",""<div class = centerbox><div class = digit-span-text>7</div></div>"",""<div class = centerbox><div class = digit-span-text>4</div></div>""]","[-1]","none","[1000,1000,1000,1000,1000,1000]","7200","0","test","3,8,9,1,7,4","6","","","","",""
"single-stim-button","31","145267","0.0-7.0-2.0","1162","digit-span","true","0","","15113","","","response","","","","","","15113","1000","test","3,8,9,1,7,4","6","SubmitButton","15113","3,8,9,3,7,4","forward","false"
"html-keyboard-response","32","146270","0.0-7.0-3.0","1162","digit-span","true","0","","null","<div class = centerbox><div class = center-text>6 Digits</p></div>","null","test_intro","","","","","","","","","","","","","","",""
"poldrack-multi-stim-multi-response","33","154473","0.0-7.0-4.0","1162","digit-span","true","0","","[-1]","","","stim","","[""<div class = centerbox><div class = digit-span-text>7</div></div>"",""<div class = centerbox><div class = digit-span-text>9</div></div>"",""<div class = centerbox><div class = digit-span-text>6</div></div>"",""<div class = centerbox><div class = digit-span-text>4</div></div>"",""<div class = centerbox><div class = digit-span-text>8</div></div>"",""<div class = centerbox><div class = digit-span-text>3</div></div>""]","[-1]","none","[1000,1000,1000,1000,1000,1000]","7200","0","test","7,9,6,4,8,3","6","","","","",""
"single-stim-button","34","162114","0.0-7.0-5.0","1162","digit-span","true","0","","7639","","","response","","","","","","7639","1000","test","7,9,6,4,8,3","6","SubmitButton","7639","7,9,6,4,8,3","forward","true"
"html-keyboard-response","35","163117","0.0-8.0-0.0","1162","digit-span","true","0","","null","<div class = centerbox><div class = center-text>7 Digits</p></div>","null","test_intro","","","","","","","","","","","","","","",""
"poldrack-multi-stim-multi-response","36","172520","0.0-8.0-1.0","1162","digit-span","true","0","","[-1]","","","stim","","[""<div class = centerbox><div class = digit-span-text>5</div></div>"",""<div class = centerbox><div class = digit-span-text>1</div></div>"",""<div class = centerbox><div class = digit-span-text>7</div></div>"",""<div class = centerbox><div class = digit-span-text>4</div></div>"",""<div class = centerbox><div class = digit-span-text>2</div></div>"",""<div class = centerbox><div class = digit-span-text>3</div></div>"",""<div class = centerbox><div class = digit-span-text>8</div></div>""]","[-1]","none","[1000,1000,1000,1000,1000,1000,1000]","8400","0","test","5,1,7,4,2,3,8","7","","","","",""
"single-stim-button","37","204769","0.0-8.0-2.0","1162","digit-span","true","0","","32246","","","response","","","","","","32246","1000","test","5,1,7,4,2,3,8","7","SubmitButton","32246","5,1,7,4,2,3,8","forward","true"
"html-keyboard-response","38","205771","0.0-8.0-3.0","1162","digit-span","true","0","","null","<div class = centerbox><div class = center-text>7 Digits</p></div>","null","test_intro","","","","","","","","","","","","","","",""
"poldrack-multi-stim-multi-response","39","215174","0.0-8.0-4.0","1162","digit-span","true","0","","[-1]","","","stim","","[""<div class = centerbox><div class = digit-span-text>9</div></div>"",""<div class = centerbox><div class = digit-span-text>8</div></div>"",""<div class = centerbox><div class = digit-span-text>5</div></div>"",""<div class = centerbox><div class = digit-span-text>2</div></div>"",""<div class = centerbox><div class = digit-span-text>1</div></div>"",""<div class = centerbox><div class = digit-span-text>6</div></div>"",""<div class = centerbox><div class = digit-span-text>3</div></div>""]","[-1]","none","[1000,1000,1000,1000,1000,1000,1000]","8400","0","test","9,8,5,2,1,6,3","7","","","","",""
"single-stim-button","40","226348","0.0-8.0-5.0","1162","digit-span","true","0","","11171","","","response","","","","","","11171","1000","test","9,8,5,2,1,6,3","7","SubmitButton","11171","9,8,5,2,1,6,3","forward","true"
"html-keyboard-response","41","227351","0.0-9.0-0.0","1162","digit-span","true","0","","null","<div class = centerbox><div class = center-text>8 Digits</p></div>","null","test_intro","","","","","","","","","","","","","","",""
"poldrack-multi-stim-multi-response","42","237954","0.0-9.0-1.0","1162","digit-span","true","0","","[-1]","","","stim","","[""<div class = centerbox><div class = digit-span-text>1</div></div>"",""<div class = centerbox><div class = digit-span-text>6</div></div>"",""<div class = centerbox><div class = digit-span-text>4</div></div>"",""<div class = centerbox><div class = digit-span-text>5</div></div>"",""<div class = centerbox><div class = digit-span-text>9</div></div>"",""<div class = centerbox><div class = digit-span-text>7</div></div>"",""<div class = centerbox><div class = digit-span-text>6</div></div>"",""<div class = centerbox><div class = digit-span-text>3</div></div>""]","[-1]","none","[1000,1000,1000,1000,1000,1000,1000,1000]","9600","0","test","1,6,4,5,9,7,6,3","8","","","","",""
"single-stim-button","43","249140","0.0-9.0-2.0","1162","digit-span","true","0","","11184","","","response","","","","","","11184","1000","test","1,6,4,5,9,7,6,3","8","SubmitButton","11184","1,6,4,5,9,7,6,3","forward","true"
"html-keyboard-response","44","250145","0.0-9.0-3.0","1162","digit-span","true","0","","null","<div class = centerbox><div class = center-text>8 Digits</p></div>","null","test_intro","","","","","","","","","","","","","","",""
"poldrack-multi-stim-multi-response","45","260748","0.0-9.0-4.0","1162","digit-span","true","0","","[-1]","","","stim","","[""<div class = centerbox><div class = digit-span-text>2</div></div>"",""<div class = centerbox><div class = digit-span-text>9</div></div>"",""<div class = centerbox><div class = digit-span-text>7</div></div>"",""<div class = centerbox><div class = digit-span-text>6</div></div>"",""<div class = centerbox><div class = digit-span-text>3</div></div>"",""<div class = centerbox><div class = digit-span-text>1</div></div>"",""<div class = centerbox><div class = digit-span-text>5</div></div>"",""<div class = centerbox><div class = digit-span-text>4</div></div>""]","[-1]","none","[1000,1000,1000,1000,1000,1000,1000,1000]","9600","0","test","2,9,7,6,3,1,5,4","8","","","","",""
"single-stim-button","46","273694","0.0-9.0-5.0","1162","digit-span","true","0","","12944","","","response","","","","","","12944","1000","test","2,9,7,6,3,1,5,4","8","SubmitButton","12944","2,9,7,6,3,1,5,4","forward","true"
"html-keyboard-response","47","274696","0.0-10.0-0.0","1162","digit-span","true","0","","null","<div class = centerbox><div class = center-text>9 Digits</p></div>","null","test_intro","","","","","","","","","","","","","","",""
"poldrack-multi-stim-multi-response","48","286499","0.0-10.0-1.0","1162","digit-span","true","0","","[-1]","","","stim","","[""<div class = centerbox><div class = digit-span-text>5</div></div>"",""<div class = centerbox><div class = digit-span-text>3</div></div>"",""<div class = centerbox><div class = digit-span-text>8</div></div>"",""<div class = centerbox><div class = digit-span-text>7</div></div>"",""<div class = centerbox><div class = digit-span-text>1</div></div>"",""<div class = centerbox><div class = digit-span-text>2</div></div>"",""<div class = centerbox><div class = digit-span-text>4</div></div>"",""<div class = centerbox><div class = digit-span-text>6</div></div>"",""<div class = centerbox><div class = digit-span-text>9</div></div>""]","[-1]","none","[1000,1000,1000,1000,1000,1000,1000,1000,1000]","10800","0","test","5,3,8,7,1,2,4,6,9","9","","","","",""
"single-stim-button","49","298534","0.0-10.0-2.0","1162","digit-span","true","0","","12033","","","response","","","","","","12033","1000","test","5,3,8,7,1,2,4,6,9","9","SubmitButton","12033","5,3,8,7,1,2,4,6,9","forward","true"
"html-keyboard-response","50","299537","0.0-10.0-3.0","1162","digit-span","true","0","","null","<div class = centerbox><div class = center-text>9 Digits</p></div>","null","test_intro","","","","","","","","","","","","","","",""
"poldrack-multi-stim-multi-response","51","311340","0.0-10.0-4.0","1162","digit-span","true","0","","[-1]","","","stim","","[""<div class = centerbox><div class = digit-span-text>4</div></div>"",""<div class = centerbox><div class = digit-span-text>2</div></div>"",""<div class = centerbox><div class = digit-span-text>6</div></div>"",""<div class = centerbox><div class = digit-span-text>9</div></div>"",""<div class = centerbox><div class = digit-span-text>1</div></div>"",""<div class = centerbox><div class = digit-span-text>7</div></div>"",""<div class = centerbox><div class = digit-span-text>8</div></div>"",""<div class = centerbox><div class = digit-span-text>3</div></div>"",""<div class = centerbox><div class = digit-span-text>5</div></div>""]","[-1]","none","[1000,1000,1000,1000,1000,1000,1000,1000,1000]","10800","0","test","4,2,6,9,1,7,8,3,5","9","","","","",""
"single-stim-button","52","325795","0.0-10.0-5.0","1162","digit-span","true","0","","14451","","","response","","","","","","14451","1000","test","4,2,6,9,1,7,8,3,5","9","SubmitButton","14451","4,2,6,9,1,7,8,3,5","forward","true"
"html-keyboard-response","53","335357","0.0-11.0","1162","digit-span","true","0","","9560.699999999255","<div class = centerbox><p class = block-text>Now, you will see some numbers, but this time you will enter them <strong>backward</strong>.<br><br>For example, you see <strong>“1—5”</strong>, and you will enter <strong>“5—1”</strong>.<br><br><br>Press <strong>""Enter/Return""</strong> to begin.</p></div>","13","start_reverse","","","","","","","","","","","","","","",""
"html-keyboard-response","54","336359","0.0-12.0-0.0","1162","digit-span","true","0","","null","<div class = centerbox><div class = center-text>2 Digits</p></div>","null","test_intro","","","","","","","","","","","","","","",""
"poldrack-multi-stim-multi-response","55","339768","0.0-12.0-1.0","1162","digit-span","true","0","","[-1]","","","stim","","[""<div class = centerbox><div class = digit-span-text>8</div></div>"",""<div class = centerbox><div class = digit-span-text>2</div></div>""]","[-1]","none","[1000,1000]","2400","0","test","8,2","2","","","","",""
"single-stim-button","56","342906","0.0-12.0-2.0","1162","digit-span","true","0","","3137","","","response","","","","","","3137","1000","test","8,2","2","SubmitButton","3137","2,8","practice","true"
"html-keyboard-response","57","352909","0.0-12.0-3.0","1162","digit-span","true","0","","null","<div class = centerbox><div class = center-block-text><span style=""color:green"">Correct!</span></div></div>","null","feedback","","","","","","","","","","","","","","",""
"html-keyboard-response","58","353911","0.0-12.0-4.0","1162","digit-span","true","0","","null","<div class = centerbox><div class = center-text>2 Digits</p></div>","null","test_intro","","","","","","","","","","","","","","",""
"poldrack-multi-stim-multi-response","59","357314","0.0-12.0-5.0","1162","digit-span","true","0","","[-1]","","","stim","","[""<div class = centerbox><div class = digit-span-text>5</div></div>"",""<div class = centerbox><div class = digit-span-text>6</div></div>""]","[-1]","none","[1000,1000]","2400","0","test","5,6","2","","","","",""
"single-stim-button","60","360708","0.0-12.0-6.0","1162","digit-span","true","0","","3391","","","response","","","","","","3391","1000","test","5,6","2","SubmitButton","3391","6,5","practice","true"
"html-keyboard-response","61","361710","0.0-13.0-0.0","1162","digit-span","true","0","","null","<div class = centerbox><div class = center-text>2 Digits</p></div>","null","test_intro","","","","","","","","","","","","","","",""
"poldrack-multi-stim-multi-response","62","365112","0.0-13.0-1.0","1162","digit-span","true","0","","[-1]","","","stim","","[""<div class = centerbox><div class = digit-span-text>2</div></div>"",""<div class = centerbox><div class = digit-span-text>5</div></div>""]","[-1]","none","[1000,1000]","2400","0","test","2,5","2","","","","",""
"single-stim-button","63","367985","0.0-13.0-2.0","1162","digit-span","true","0","","2870","","","response","","","","","","2870","1000","test","2,5","2","SubmitButton","2870","5,2","reverse","true"
"html-keyboard-response","64","368988","0.0-13.0-3.0","1162","digit-span","true","0","","null","<div class = centerbox><div class = center-text>2 Digits</p></div>","null","test_intro","","","","","","","","","","","","","","",""
"poldrack-multi-stim-multi-response","65","372392","0.0-13.0-4.0","1162","digit-span","true","0","","[-1]","","","stim","","[""<div class = centerbox><div class = digit-span-text>6</div></div>"",""<div class = centerbox><div class = digit-span-text>3</div></div>""]","[-1]","none","[1000,1000]","2400","0","test","6,3","2","","","","",""
"single-stim-button","66","374823","0.0-13.0-5.0","1162","digit-span","true","0","","2429","","","response","","","","","","2429","1000","test","6,3","2","SubmitButton","2429","3,6","reverse","true"
"html-keyboard-response","67","375825","0.0-14.0-0.0","1162","digit-span","true","0","","null","<div class = centerbox><div class = center-text>3 Digits</p></div>","null","test_intro","","","","","","","","","","","","","","",""
"poldrack-multi-stim-multi-response","68","380428","0.0-14.0-1.0","1162","digit-span","true","0","","[-1]","","","stim","","[""<div class = centerbox><div class = digit-span-text>5</div></div>"",""<div class = centerbox><div class = digit-span-text>7</div></div>"",""<div class = centerbox><div class = digit-span-text>4</div></div>""]","[-1]","none","[1000,1000,1000]","3600","0","test","5,7,4","3","","","","",""
"single-stim-button","69","384768","0.0-14.0-2.0","1162","digit-span","true","0","","4338","","","response","","","","","","4338","1000","test","5,7,4","3","SubmitButton","4338","4,7,5","reverse","true"
"html-keyboard-response","70","385770","0.0-14.0-3.0","1162","digit-span","true","0","","null","<div class = centerbox><div class = center-text>3 Digits</p></div>","null","test_intro","","","","","","","","","","","","","","",""
"poldrack-multi-stim-multi-response","71","390373","0.0-14.0-4.0","1162","digit-span","true","0","","[-1]","","","stim","","[""<div class = centerbox><div class = digit-span-text>2</div></div>"",""<div class = centerbox><div class = digit-span-text>5</div></div>"",""<div class = centerbox><div class = digit-span-text>9</div></div>""]","[-1]","none","[1000,1000,1000]","3600","0","test","2,5,9","3","","","","",""
"single-stim-button","72","394586","0.0-14.0-5.0","1162","digit-span","true","0","","4211","","","response","","","","","","4211","1000","test","2,5,9","3","SubmitButton","4211","9,5,4","reverse","false"
"html-keyboard-response","73","395588","0.0-15.0-0.0","1162","digit-span","true","0","","null","<div class = centerbox><div class = center-text>4 Digits</p></div>","null","test_intro","","","","","","","","","","","","","","",""
"poldrack-multi-stim-multi-response","74","401391","0.0-15.0-1.0","1162","digit-span","true","0","","[-1]","","","stim","","[""<div class = centerbox><div class = digit-span-text>7</div></div>"",""<div class = centerbox><div class = digit-span-text>2</div></div>"",""<div class = centerbox><div class = digit-span-text>9</div></div>"",""<div class = centerbox><div class = digit-span-text>6</div></div>""]","[-1]","none","[1000,1000,1000,1000]","4800","0","test","7,2,9,6","4","","","","",""
"single-stim-button","75","408266","0.0-15.0-2.0","1162","digit-span","true","0","","6873","","","response","","","","","","6873","1000","test","7,2,9,6","4","SubmitButton","6873","6,9,2,7","reverse","true"
"html-keyboard-response","76","409268","0.0-15.0-3.0","1162","digit-span","true","0","","null","<div class = centerbox><div class = center-text>4 Digits</p></div>","null","test_intro","","","","","","","","","","","","","","",""
"poldrack-multi-stim-multi-response","77","415071","0.0-15.0-4.0","1162","digit-span","true","0","","[-1]","","","stim","","[""<div class = centerbox><div class = digit-span-text>8</div></div>"",""<div class = centerbox><div class = digit-span-text>4</div></div>"",""<div class = centerbox><div class = digit-span-text>9</div></div>"",""<div class = centerbox><div class = digit-span-text>3</div></div>""]","[-1]","none","[1000,1000,1000,1000]","4800","0","test","8,4,9,3","4","","","","",""
"single-stim-button","78","419684","0.0-15.0-5.0","1162","digit-span","true","0","","4611","","","response","","","","","","4611","1000","test","8,4,9,3","4","SubmitButton","4611","3,9,4,8","reverse","true"
"html-keyboard-response","79","420686","0.0-16.0-0.0","1162","digit-span","true","0","","null","<div class = centerbox><div class = center-text>5 Digits</p></div>","null","test_intro","","","","","","","","","","","","","","",""
"poldrack-multi-stim-multi-response","80","427689","0.0-16.0-1.0","1162","digit-span","true","0","","[-1]","","","stim","","[""<div class = centerbox><div class = digit-span-text>4</div></div>"",""<div class = centerbox><div class = digit-span-text>1</div></div>"",""<div class = centerbox><div class = digit-span-text>3</div></div>"",""<div class = centerbox><div class = digit-span-text>5</div></div>"",""<div class = centerbox><div class = digit-span-text>7</div></div>""]","[-1]","none","[1000,1000,1000,1000,1000]","6000","0","test","4,1,3,5,7","5","","","","",""
"single-stim-button","81","437197","0.0-16.0-2.0","1162","digit-span","true","0","","9506","","","response","","","","","","9506","1000","test","4,1,3,5,7","5","SubmitButton","9506","7,5,3,1,4","reverse","true"
"html-keyboard-response","82","438199","0.0-16.0-3.0","1162","digit-span","true","0","","null","<div class = centerbox><div class = center-text>5 Digits</p></div>","null","test_intro","","","","","","","","","","","","","","",""
"poldrack-multi-stim-multi-response","83","445202","0.0-16.0-4.0","1162","digit-span","true","0","","[-1]","","","stim","","[""<div class = centerbox><div class = digit-span-text>9</div></div>"",""<div class = centerbox><div class = digit-span-text>7</div></div>"",""<div class = centerbox><div class = digit-span-text>8</div></div>"",""<div class = centerbox><div class = digit-span-text>5</div></div>"",""<div class = centerbox><div class = digit-span-text>2</div></div>""]","[-1]","none","[1000,1000,1000,1000,1000]","6000","0","test","9,7,8,5,2","5","","","","",""
"single-stim-button","84","452429","0.0-16.0-5.0","1162","digit-span","true","0","","7225","","","response","","","","","","7225","1000","test","9,7,8,5,2","5","SubmitButton","7225","2,5,8,7,9","reverse","true"
"html-keyboard-response","85","453431","0.0-17.0-0.0","1162","digit-span","true","0","","null","<div class = centerbox><div class = center-text>6 Digits</p></div>","null","test_intro","","","","","","","","","","","","","","",""
"poldrack-multi-stim-multi-response","86","461634","0.0-17.0-1.0","1162","digit-span","true","0","","[-1]","","","stim","","[""<div class = centerbox><div class = digit-span-text>1</div></div>"",""<div class = centerbox><div class = digit-span-text>6</div></div>"",""<div class = centerbox><div class = digit-span-text>5</div></div>"",""<div class = centerbox><div class = digit-span-text>2</div></div>"",""<div class = centerbox><div class = digit-span-text>9</div></div>"",""<div class = centerbox><div class = digit-span-text>8</div></div>""]","[-1]","none","[1000,1000,1000,1000,1000,1000]","7200","0","test","1,6,5,2,9,8","6","","","","",""
"single-stim-button","87","469102","0.0-17.0-2.0","1162","digit-span","true","0","","7466","","","response","","","","","","7466","1000","test","1,6,5,2,9,8","6","SubmitButton","7466","8,9,2,5,6,1","reverse","true"
"html-keyboard-response","88","470103","0.0-17.0-3.0","1162","digit-span","true","0","","null","<div class = centerbox><div class = center-text>6 Digits</p></div>","null","test_intro","","","","","","","","","","","","","","",""
"poldrack-multi-stim-multi-response","89","478307","0.0-17.0-4.0","1162","digit-span","true","0","","[-1]","","","stim","","[""<div class = centerbox><div class = digit-span-text>3</div></div>"",""<div class = centerbox><div class = digit-span-text>6</div></div>"",""<div class = centerbox><div class = digit-span-text>7</div></div>"",""<div class = centerbox><div class = digit-span-text>1</div></div>"",""<div class = centerbox><div class = digit-span-text>9</div></div>"",""<div class = centerbox><div class = digit-span-text>4</div></div>""]","[-1]","none","[1000,1000,1000,1000,1000,1000]","7200","0","test","3,6,7,1,9,4","6","","","","",""
"single-stim-button","90","486580","0.0-17.0-5.0","1162","digit-span","true","0","","8271","","","response","","","","","","8271","1000","test","3,6,7,1,9,4","6","SubmitButton","8271","4,9,1,7,6,3","reverse","true"
"html-keyboard-response","91","487582","0.0-18.0-0.0","1162","digit-span","true","0","","null","<div class = centerbox><div class = center-text>7 Digits</p></div>","null","test_intro","","","","","","","","","","","","","","",""
"poldrack-multi-stim-multi-response","92","496984","0.0-18.0-1.0","1162","digit-span","true","0","","[-1]","","","stim","","[""<div class = centerbox><div class = digit-span-text>8</div></div>"",""<div class = centerbox><div class = digit-span-text>5</div></div>"",""<div class = centerbox><div class = digit-span-text>9</div></div>"",""<div class = centerbox><div class = digit-span-text>2</div></div>"",""<div class = centerbox><div class = digit-span-text>3</div></div>"",""<div class = centerbox><div class = digit-span-text>4</div></div>"",""<div class = centerbox><div class = digit-span-text>2</div></div>""]","[-1]","none","[1000,1000,1000,1000,1000,1000,1000]","8400","0","test","8,5,9,2,3,4,2","7","","","","",""
"single-stim-button","93","512809","0.0-18.0-2.0","1162","digit-span","true","0","","15822","","","response","","","","","","15822","1000","test","8,5,9,2,3,4,2","7","SubmitButton","15822","2,4,3,2,9,5,8","reverse","true"
"html-keyboard-response","94","513811","0.0-18.0-3.0","1162","digit-span","true","0","","null","<div class = centerbox><div class = center-text>7 Digits</p></div>","null","test_intro","","","","","","","","","","","","","","",""
"poldrack-multi-stim-multi-response","95","523213","0.0-18.0-4.0","1162","digit-span","true","0","","[-1]","","","stim","","[""<div class = centerbox><div class = digit-span-text>4</div></div>"",""<div class = centerbox><div class = digit-span-text>5</div></div>"",""<div class = centerbox><div class = digit-span-text>7</div></div>"",""<div class = centerbox><div class = digit-span-text>9</div></div>"",""<div class = centerbox><div class = digit-span-text>2</div></div>"",""<div class = centerbox><div class = digit-span-text>8</div></div>"",""<div class = centerbox><div class = digit-span-text>1</div></div>""]","[-1]","none","[1000,1000,1000,1000,1000,1000,1000]","8400","0","test","4,5,7,9,2,8,1","7","","","","",""
"single-stim-button","96","534822","0.0-18.0-5.0","1162","digit-span","true","0","","11607","","","response","","","","","","11607","1000","test","4,5,7,9,2,8,1","7","SubmitButton","11607","1,8,2,9,7,5,4","reverse","true"
"html-keyboard-response","97","535824","0.0-19.0-0.0","1162","digit-span","true","0","","null","<div class = centerbox><div class = center-text>8 Digits</p></div>","null","test_intro","","","","","","","","","","","","","","",""
"poldrack-multi-stim-multi-response","98","546427","0.0-19.0-1.0","1162","digit-span","true","0","","[-1]","","","stim","","[""<div class = centerbox><div class = digit-span-text>6</div></div>"",""<div class = centerbox><div class = digit-span-text>9</div></div>"",""<div class = centerbox><div class = digit-span-text>1</div></div>"",""<div class = centerbox><div class = digit-span-text>6</div></div>"",""<div class = centerbox><div class = digit-span-text>3</div></div>"",""<div class = centerbox><div class = digit-span-text>2</div></div>"",""<div class = centerbox><div class = digit-span-text>5</div></div>"",""<div class = centerbox><div class = digit-span-text>8</div></div>""]","[-1]","none","[1000,1000,1000,1000,1000,1000,1000,1000]","9600","0","test","6,9,1,6,3,2,5,8","8","","","","",""
"single-stim-button","99","563011","0.0-19.0-2.0","1162","digit-span","true","0","","16582","","","response","","","","","","16582","1000","test","6,9,1,6,3,2,5,8","8","SubmitButton","16582","8,5,2,3,6,1,9,6","reverse","true"
"html-keyboard-response","100","564013","0.0-19.0-3.0","1162","digit-span","true","0","","null","<div class = centerbox><div class = center-text>8 Digits</p></div>","null","test_intro","","","","","","","","","","","","","","",""
"poldrack-multi-stim-multi-response","101","574616","0.0-19.0-4.0","1162","digit-span","true","0","","[-1]","","","stim","","[""<div class = centerbox><div class = digit-span-text>3</div></div>"",""<div class = centerbox><div class = digit-span-text>1</div></div>"",""<div class = centerbox><div class = digit-span-text>7</div></div>"",""<div class = centerbox><div class = digit-span-text>9</div></div>"",""<div class = centerbox><div class = digit-span-text>5</div></div>"",""<div class = centerbox><div class = digit-span-text>4</div></div>"",""<div class = centerbox><div class = digit-span-text>8</div></div>"",""<div class = centerbox><div class = digit-span-text>2</div></div>""]","[-1]","none","[1000,1000,1000,1000,1000,1000,1000,1000]","9600","0","test","3,1,7,9,5,4,8,2","8","","","","",""
"single-stim-button","102","587703","0.0-19.0-5.0","1162","digit-span","true","0","","13085","","","response","","","","","","13085","1000","test","3,1,7,9,5,4,8,2","8","SubmitButton","13085","2,8,4,5,9,7,1,3","reverse","true"
"image-keyboard-response","103","590236","0.0-20.0","1162","digit-span","true","0","","2531.199999999255","img/trophy2.jpeg","13","end","","","","","","","","","","","","","","",""
