"trial_type","trial_index","time_elapsed","internal_node_id","subject","exp_id","full_screen","focus_shifts","success","rt","stimulus","key_press","trial_id","view_history","stimuli","key_presses","possible_responses","stim_durations","block_duration","timing_post_trial","exp_stage","sequence","num_digits","mouse_click","stim_duration","response","condition","correct"
"pavlovia","0","1592","0.0-0.0","1005","digit-span","true","0","","","","","","","","","","","","","","","","","","","",""
"fullscreen","1","5081","0.0-1.0","1005","digit-span","true","0","true","","","","","","","","","","","","","","","","","","",""
"html-keyboard-response","2","9410","0.0-2.0-0.0","1005","digit-span","true","0","","4326.799999952316","<div class = centerbox><p class = center-block-text>Welcome to the number game! It will take less than 5 minutes. Press <strong>""Enter/Return""</strong> to begin.</p></div>","13","instruction","","","","","","","","","","","","","","",""
"instructions","3","19821","0.0-2.0-1.0","1005","digit-span","true","0","","10410.600000143051","","","instruction","[{""page_index"":0,""viewing_time"":10410.299999952316}]","","","","","","","","","","","","","",""
"instructions","4","31876","0.0-2.0-2.0","1005","digit-span","true","0","","11038.799999952316","","","instruction","[{""page_index"":0,""viewing_time"":11038.5}]","","","","","","","","","","","","","",""
"html-keyboard-response","5","33884","0.0-3.0-0.0","1005","digit-span","true","0","","null","<div class = centerbox><div class = center-text>2 Digits</p></div>","null","test_intro","","","","","","","","","","","","","","",""
"poldrack-multi-stim-multi-response","6","37297","0.0-3.0-1.0","1005","digit-span","true","0","","[-1]","","","stim","","[""<div class = centerbox><div class = digit-span-text>2</div></div>"",""<div class = centerbox><div class = digit-span-text>9</div></div>""]","[-1]","none","[1000,1000]","2400","0","test","2,9","2","","","","",""
"single-stim-button","7","43932","0.0-3.0-2.0","1005","digit-span","true","0","","6632","","","response","","","","","","6632","1000","test","2,9","2","SubmitButton","6632","2,9","forward","true"
"html-keyboard-response","8","44934","0.0-3.0-3.0","1005","digit-span","true","0","","null","<div class = centerbox><div class = center-text>2 Digits</p></div>","null","test_intro","","","","","","","","","","","","","","",""
"poldrack-multi-stim-multi-response","9","48340","0.0-3.0-4.0","1005","digit-span","true","0","","[-1]","","","stim","","[""<div class = centerbox><div class = digit-span-text>4</div></div>"",""<div class = centerbox><div class = digit-span-text>6</div></div>""]","[-1]","none","[1000,1000]","2400","0","test","4,6","2","","","","",""
"single-stim-button","10","54383","0.0-3.0-5.0","1005","digit-span","true","0","","6041","","","response","","","","","","6041","1000","test","4,6","2","SubmitButton","6041","4,6","forward","true"
"html-keyboard-response","11","55385","0.0-4.0-0.0","1005","digit-span","true","0","","null","<div class = centerbox><div class = center-text>3 Digits</p></div>","null","test_intro","","","","","","","","","","","","","","",""
"poldrack-multi-stim-multi-response","12","59991","0.0-4.0-1.0","1005","digit-span","true","0","","[-1]","","","stim","","[""<div class = centerbox><div class = digit-span-text>3</div></div>"",""<div class = centerbox><div class = digit-span-text>8</div></div>"",""<div class = centerbox><div class = digit-span-text>6</div></div>""]","[-1]","none","[1000,1000,1000]","3600","0","test","3,8,6","3","","","","",""
"single-stim-button","13","66546","0.0-4.0-2.0","1005","digit-span","true","0","","6554","","","response","","","","","","6554","1000","test","3,8,6","3","SubmitButton","6554","3,8,6","forward","true"
"html-keyboard-response","14","67550","0.0-4.0-3.0","1005","digit-span","true","0","","null","<div class = centerbox><div class = center-text>3 Digits</p></div>","null","test_intro","","","","","","","","","","","","","","",""
"poldrack-multi-stim-multi-response","15","72156","0.0-4.0-4.0","1005","digit-span","true","0","","[-1]","","","stim","","[""<div class = centerbox><div class = digit-span-text>6</div></div>"",""<div class = centerbox><div class = digit-span-text>1</div></div>"",""<div class = centerbox><div class = digit-span-text>2</div></div>""]","[-1]","none","[1000,1000,1000]","3600","0","test","6,1,2","3","","","","",""
"single-stim-button","16","79437","0.0-4.0-5.0","1005","digit-span","true","0","","7280","","","response","","","","","","7280","1000","test","6,1,2","3","SubmitButton","7280","6,1,2","forward","true"
"html-keyboard-response","17","80439","0.0-5.0-0.0","1005","digit-span","true","0","","null","<div class = centerbox><div class = center-text>4 Digits</p></div>","null","test_intro","","","","","","","","","","","","","","",""
"poldrack-multi-stim-multi-response","18","86244","0.0-5.0-1.0","1005","digit-span","true","0","","[-1]","","","stim","","[""<div class = centerbox><div class = digit-span-text>3</div></div>"",""<div class = centerbox><div class = digit-span-text>4</div></div>"",""<div class = centerbox><div class = digit-span-text>1</div></div>"",""<div class = centerbox><div class = digit-span-text>7</div></div>""]","[-1]","none","[1000,1000,1000,1000]","4800","0","test","3,4,1,7","4","","","","",""
"single-stim-button","19","96366","0.0-5.0-2.0","1005","digit-span","true","0","","10120","","","response","","","","","","10120","1000","test","3,4,1,7","4","SubmitButton","10120","3,4,1,7","forward","true"
"html-keyboard-response","20","97369","0.0-5.0-3.0","1005","digit-span","true","0","","null","<div class = centerbox><div class = center-text>4 Digits</p></div>","null","test_intro","","","","","","","","","","","","","","",""
"poldrack-multi-stim-multi-response","21","103175","0.0-5.0-4.0","1005","digit-span","true","0","","[-1]","","","stim","","[""<div class = centerbox><div class = digit-span-text>6</div></div>"",""<div class = centerbox><div class = digit-span-text>1</div></div>"",""<div class = centerbox><div class = digit-span-text>5</div></div>"",""<div class = centerbox><div class = digit-span-text>8</div></div>""]","[-1]","none","[1000,1000,1000,1000]","4800","0","test","6,1,5,8","4","","","","",""
"single-stim-button","22","111101","0.0-5.0-5.0","1005","digit-span","true","0","","7923","","","response","","","","","","7923","1000","test","6,1,5,8","4","SubmitButton","7923","6,1,5,8","forward","true"
"html-keyboard-response","23","112103","0.0-6.0-0.0","1005","digit-span","true","0","","null","<div class = centerbox><div class = center-text>5 Digits</p></div>","null","test_intro","","","","","","","","","","","","","","",""
"poldrack-multi-stim-multi-response","24","119108","0.0-6.0-1.0","1005","digit-span","true","0","","[-1]","","","stim","","[""<div class = centerbox><div class = digit-span-text>8</div></div>"",""<div class = centerbox><div class = digit-span-text>4</div></div>"",""<div class = centerbox><div class = digit-span-text>2</div></div>"",""<div class = centerbox><div class = digit-span-text>3</div></div>"",""<div class = centerbox><div class = digit-span-text>9</div></div>""]","[-1]","none","[1000,1000,1000,1000,1000]","6000","0","test","8,4,2,3,9","5","","","","",""
"single-stim-button","25","131195","0.0-6.0-2.0","1005","digit-span","true","0","","12084","","","response","","","","","","12084","1000","test","8,4,2,3,9","5","SubmitButton","12084","8,4,2,3,9","forward","true"
"html-keyboard-response","26","132197","0.0-6.0-3.0","1005","digit-span","true","0","","null","<div class = centerbox><div class = center-text>5 Digits</p></div>","null","test_intro","","","","","","","","","","","","","","",""
"poldrack-multi-stim-multi-response","27","139202","0.0-6.0-4.0","1005","digit-span","true","0","","[-1]","","","stim","","[""<div class = centerbox><div class = digit-span-text>5</div></div>"",""<div class = centerbox><div class = digit-span-text>2</div></div>"",""<div class = centerbox><div class = digit-span-text>1</div></div>"",""<div class = centerbox><div class = digit-span-text>8</div></div>"",""<div class = centerbox><div class = digit-span-text>6</div></div>""]","[-1]","none","[1000,1000,1000,1000,1000]","6000","0","test","5,2,1,8,6","5","","","","",""
"single-stim-button","28","149251","0.0-6.0-5.0","1005","digit-span","true","0","","10047","","","response","","","","","","10047","1000","test","5,2,1,8,6","5","SubmitButton","10047","5,2,1,6,8","forward","false"
"html-keyboard-response","29","150254","0.0-7.0-0.0","1005","digit-span","true","0","","null","<div class = centerbox><div class = center-text>6 Digits</p></div>","null","test_intro","","","","","","","","","","","","","","",""
"poldrack-multi-stim-multi-response","30","158460","0.0-7.0-1.0","1005","digit-span","true","0","","[-1]","","","stim","","[""<div class = centerbox><div class = digit-span-text>3</div></div>"",""<div class = centerbox><div class = digit-span-text>8</div></div>"",""<div class = centerbox><div class = digit-span-text>9</div></div>"",""<div class = centerbox><div class = digit-span-text>1</div></div>"",""<div class = centerbox><div class = digit-span-text>7</div></div>"",""<div class = centerbox><div class = digit-span-text>4</div></div>""]","[-1]","none","[1000,1000,1000,1000,1000,1000]","7200","0","test","3,8,9,1,7,4","6","","","","",""
"single-stim-button","31","171734","0.0-7.0-2.0","1005","digit-span","true","0","","13271","","","response","","","","","","13271","1000","test","3,8,9,1,7,4","6","SubmitButton","13271","3,8,9,3,2,1","forward","false"
"html-keyboard-response","32","172737","0.0-7.0-3.0","1005","digit-span","true","0","","null","<div class = centerbox><div class = center-text>6 Digits</p></div>","null","test_intro","","","","","","","","","","","","","","",""
"poldrack-multi-stim-multi-response","33","180942","0.0-7.0-4.0","1005","digit-span","true","0","","[-1]","","","stim","","[""<div class = centerbox><div class = digit-span-text>7</div></div>"",""<div class = centerbox><div class = digit-span-text>9</div></div>"",""<div class = centerbox><div class = digit-span-text>6</div></div>"",""<div class = centerbox><div class = digit-span-text>4</div></div>"",""<div class = centerbox><div class = digit-span-text>8</div></div>"",""<div class = centerbox><div class = digit-span-text>3</div></div>""]","[-1]","none","[1000,1000,1000,1000,1000,1000]","7200","0","test","7,9,6,4,8,3","6","","","","",""
"single-stim-button","34","196995","0.0-7.0-5.0","1005","digit-span","true","0","","16050","","","response","","","","","","16050","1000","test","7,9,6,4,8,3","6","SubmitButton","16050","7,9,6,4,8,3","forward","true"
"html-keyboard-response","35","197998","0.0-8.0-0.0","1005","digit-span","true","0","","null","<div class = centerbox><div class = center-text>7 Digits</p></div>","null","test_intro","","","","","","","","","","","","","","",""
"poldrack-multi-stim-multi-response","36","207403","0.0-8.0-1.0","1005","digit-span","true","0","","[-1]","","","stim","","[""<div class = centerbox><div class = digit-span-text>5</div></div>"",""<div class = centerbox><div class = digit-span-text>1</div></div>"",""<div class = centerbox><div class = digit-span-text>7</div></div>"",""<div class = centerbox><div class = digit-span-text>4</div></div>"",""<div class = centerbox><div class = digit-span-text>2</div></div>"",""<div class = centerbox><div class = digit-span-text>3</div></div>"",""<div class = centerbox><div class = digit-span-text>8</div></div>""]","[-1]","none","[1000,1000,1000,1000,1000,1000,1000]","8400","0","test","5,1,7,4,2,3,8","7","","","","",""
"single-stim-button","37","231083","0.0-8.0-2.0","1005","digit-span","true","0","","23677","","","response","","","","","","23677","1000","test","5,1,7,4,2,3,8","7","SubmitButton","23677","5,1,7,4,2,3,8","forward","true"
"html-keyboard-response","38","232086","0.0-8.0-3.0","1005","digit-span","true","0","","null","<div class = centerbox><div class = center-text>7 Digits</p></div>","null","test_intro","","","","","","","","","","","","","","",""
"poldrack-multi-stim-multi-response","39","241493","0.0-8.0-4.0","1005","digit-span","true","0","","[-1]","","","stim","","[""<div class = centerbox><div class = digit-span-text>9</div></div>"",""<div class = centerbox><div class = digit-span-text>8</div></div>"",""<div class = centerbox><div class = digit-span-text>5</div></div>"",""<div class = centerbox><div class = digit-span-text>2</div></div>"",""<div class = centerbox><div class = digit-span-text>1</div></div>"",""<div class = centerbox><div class = digit-span-text>6</div></div>"",""<div class = centerbox><div class = digit-span-text>3</div></div>""]","[-1]","none","[1000,1000,1000,1000,1000,1000,1000]","8400","0","test","9,8,5,2,1,6,3","7","","","","",""
"single-stim-button","40","270813","0.0-8.0-5.0","1005","digit-span","true","0","","29318","","","response","","","","","","29318","1000","test","9,8,5,2,1,6,3","7","SubmitButton","29318","9,8,5,2,1,6,3","forward","true"
"html-keyboard-response","41","271816","0.0-9.0-0.0","1005","digit-span","true","0","","null","<div class = centerbox><div class = center-text>8 Digits</p></div>","null","test_intro","","","","","","","","","","","","","","",""
"poldrack-multi-stim-multi-response","42","282421","0.0-9.0-1.0","1005","digit-span","true","0","","[-1]","","","stim","","[""<div class = centerbox><div class = digit-span-text>1</div></div>"",""<div class = centerbox><div class = digit-span-text>6</div></div>"",""<div class = centerbox><div class = digit-span-text>4</div></div>"",""<div class = centerbox><div class = digit-span-text>5</div></div>"",""<div class = centerbox><div class = digit-span-text>9</div></div>"",""<div class = centerbox><div class = digit-span-text>7</div></div>"",""<div class = centerbox><div class = digit-span-text>6</div></div>"",""<div class = centerbox><div class = digit-span-text>3</div></div>""]","[-1]","none","[1000,1000,1000,1000,1000,1000,1000,1000]","9600","0","test","1,6,4,5,9,7,6,3","8","","","","",""
"single-stim-button","43","305633","0.0-9.0-2.0","1005","digit-span","true","0","","23209","","","response","","","","","","23209","1000","test","1,6,4,5,9,7,6,3","8","SubmitButton","23209","1,6,4,5,9,7,6,3","forward","true"
"html-keyboard-response","44","306644","0.0-9.0-3.0","1005","digit-span","true","0","","null","<div class = centerbox><div class = center-text>8 Digits</p></div>","null","test_intro","","","","","","","","","","","","","","",""
"poldrack-multi-stim-multi-response","45","317249","0.0-9.0-4.0","1005","digit-span","true","0","","[-1]","","","stim","","[""<div class = centerbox><div class = digit-span-text>2</div></div>"",""<div class = centerbox><div class = digit-span-text>9</div></div>"",""<div class = centerbox><div class = digit-span-text>7</div></div>"",""<div class = centerbox><div class = digit-span-text>6</div></div>"",""<div class = centerbox><div class = digit-span-text>3</div></div>"",""<div class = centerbox><div class = digit-span-text>1</div></div>"",""<div class = centerbox><div class = digit-span-text>5</div></div>"",""<div class = centerbox><div class = digit-span-text>4</div></div>""]","[-1]","none","[1000,1000,1000,1000,1000,1000,1000,1000]","9600","0","test","2,9,7,6,3,1,5,4","8","","","","",""
"single-stim-button","46","344186","0.0-9.0-5.0","1005","digit-span","true","0","","26934","","","response","","","","","","26934","1000","test","2,9,7,6,3,1,5,4","8","SubmitButton","26934","2,9,7,6,3,2,4,5","forward","false"
"html-keyboard-response","47","345190","0.0-10.0-0.0","1005","digit-span","true","0","","null","<div class = centerbox><div class = center-text>9 Digits</p></div>","null","test_intro","","","","","","","","","","","","","","",""
"poldrack-multi-stim-multi-response","48","356995","0.0-10.0-1.0","1005","digit-span","true","0","","[-1]","","","stim","","[""<div class = centerbox><div class = digit-span-text>5</div></div>"",""<div class = centerbox><div class = digit-span-text>3</div></div>"",""<div class = centerbox><div class = digit-span-text>8</div></div>"",""<div class = centerbox><div class = digit-span-text>7</div></div>"",""<div class = centerbox><div class = digit-span-text>1</div></div>"",""<div class = centerbox><div class = digit-span-text>2</div></div>"",""<div class = centerbox><div class = digit-span-text>4</div></div>"",""<div class = centerbox><div class = digit-span-text>6</div></div>"",""<div class = centerbox><div class = digit-span-text>9</div></div>""]","[-1]","none","[1000,1000,1000,1000,1000,1000,1000,1000,1000]","10800","0","test","5,3,8,7,1,2,4,6,9","9","","","","",""
"single-stim-button","49","405915","0.0-10.0-2.0","1005","digit-span","true","0","","48917","","","response","","","","","","48917","1000","test","5,3,8,7,1,2,4,6,9","9","SubmitButton","48917","5,3,8,7,7,2,3,4,6,8","forward","false"
"html-keyboard-response","50","406918","0.0-10.0-3.0","1005","digit-span","true","0","","null","<div class = centerbox><div class = center-text>9 Digits</p></div>","null","test_intro","","","","","","","","","","","","","","",""
"poldrack-multi-stim-multi-response","51","418724","0.0-10.0-4.0","1005","digit-span","true","0","","[-1]","","","stim","","[""<div class = centerbox><div class = digit-span-text>4</div></div>"",""<div class = centerbox><div class = digit-span-text>2</div></div>"",""<div class = centerbox><div class = digit-span-text>6</div></div>"",""<div class = centerbox><div class = digit-span-text>9</div></div>"",""<div class = centerbox><div class = digit-span-text>1</div></div>"",""<div class = centerbox><div class = digit-span-text>7</div></div>"",""<div class = centerbox><div class = digit-span-text>8</div></div>"",""<div class = centerbox><div class = digit-span-text>3</div></div>"",""<div class = centerbox><div class = digit-span-text>5</div></div>""]","[-1]","none","[1000,1000,1000,1000,1000,1000,1000,1000,1000]","10800","0","test","4,2,6,9,1,7,8,3,5","9","","","","",""
"single-stim-button","52","515387","0.0-10.0-5.0","1005","digit-span","true","0","","96660","","","response","","","","","","96660","1000","test","4,2,6,9,1,7,8,3,5","9","SubmitButton","96660","4,2,6,9,1,2,8,7,6,5","forward","false"
"html-keyboard-response","53","523035","0.0-11.0","1005","digit-span","true","0","","7647.299999952316","<div class = centerbox><p class = block-text>Now, you will see some numbers, but this time you will enter them <strong>backward</strong>.<br><br>For example, you see <strong>“1—5”</strong>, and you will enter <strong>“5—1”</strong>.<br><br><br>Press <strong>""Enter/Return""</strong> to begin.</p></div>","13","start_reverse","","","","","","","","","","","","","","",""
"html-keyboard-response","54","524038","0.0-12.0-0.0","1005","digit-span","true","0","","null","<div class = centerbox><div class = center-text>2 Digits</p></div>","null","test_intro","","","","","","","","","","","","","","",""
"poldrack-multi-stim-multi-response","55","527444","0.0-12.0-1.0","1005","digit-span","true","0","","[-1]","","","stim","","[""<div class = centerbox><div class = digit-span-text>8</div></div>"",""<div class = centerbox><div class = digit-span-text>2</div></div>""]","[-1]","none","[1000,1000]","2400","0","test","8,2","2","","","","",""
"single-stim-button","56","532094","0.0-12.0-2.0","1005","digit-span","true","0","","4648","","","response","","","","","","4648","1000","test","8,2","2","SubmitButton","4648","2,8","practice","true"
"html-keyboard-response","57","542096","0.0-12.0-3.0","1005","digit-span","true","0","","null","<div class = centerbox><div class = center-block-text><span style=""color:green"">Correct!</span></div></div>","null","feedback","","","","","","","","","","","","","","",""
"html-keyboard-response","58","543099","0.0-12.0-4.0","1005","digit-span","true","0","","null","<div class = centerbox><div class = center-text>2 Digits</p></div>","null","test_intro","","","","","","","","","","","","","","",""
"poldrack-multi-stim-multi-response","59","546505","0.0-12.0-5.0","1005","digit-span","true","0","","[-1]","","","stim","","[""<div class = centerbox><div class = digit-span-text>5</div></div>"",""<div class = centerbox><div class = digit-span-text>6</div></div>""]","[-1]","none","[1000,1000]","2400","0","test","5,6","2","","","","",""
"single-stim-button","60","549639","0.0-12.0-6.0","1005","digit-span","true","0","","3132","","","response","","","","","","3132","1000","test","5,6","2","SubmitButton","3132","6,5","practice","true"
"html-keyboard-response","61","550641","0.0-13.0-0.0","1005","digit-span","true","0","","null","<div class = centerbox><div class = center-text>2 Digits</p></div>","null","test_intro","","","","","","","","","","","","","","",""
"poldrack-multi-stim-multi-response","62","554047","0.0-13.0-1.0","1005","digit-span","true","0","","[-1]","","","stim","","[""<div class = centerbox><div class = digit-span-text>2</div></div>"",""<div class = centerbox><div class = digit-span-text>5</div></div>""]","[-1]","none","[1000,1000]","2400","0","test","2,5","2","","","","",""
"single-stim-button","63","557399","0.0-13.0-2.0","1005","digit-span","true","0","","3351","","","response","","","","","","3351","1000","test","2,5","2","SubmitButton","3351","5,2","reverse","true"
"html-keyboard-response","64","558402","0.0-13.0-3.0","1005","digit-span","true","0","","null","<div class = centerbox><div class = center-text>2 Digits</p></div>","null","test_intro","","","","","","","","","","","","","","",""
"poldrack-multi-stim-multi-response","65","561807","0.0-13.0-4.0","1005","digit-span","true","0","","[-1]","","","stim","","[""<div class = centerbox><div class = digit-span-text>6</div></div>"",""<div class = centerbox><div class = digit-span-text>3</div></div>""]","[-1]","none","[1000,1000]","2400","0","test","6,3","2","","","","",""
"single-stim-button","66","565425","0.0-13.0-5.0","1005","digit-span","true","0","","3616","","","response","","","","","","3616","1000","test","6,3","2","SubmitButton","3616","3,6","reverse","true"
"html-keyboard-response","67","566427","0.0-14.0-0.0","1005","digit-span","true","0","","null","<div class = centerbox><div class = center-text>3 Digits</p></div>","null","test_intro","","","","","","","","","","","","","","",""
"poldrack-multi-stim-multi-response","68","571033","0.0-14.0-1.0","1005","digit-span","true","0","","[-1]","","","stim","","[""<div class = centerbox><div class = digit-span-text>5</div></div>"",""<div class = centerbox><div class = digit-span-text>7</div></div>"",""<div class = centerbox><div class = digit-span-text>4</div></div>""]","[-1]","none","[1000,1000,1000]","3600","0","test","5,7,4","3","","","","",""
"single-stim-button","69","577563","0.0-14.0-2.0","1005","digit-span","true","0","","6528","","","response","","","","","","6528","1000","test","5,7,4","3","SubmitButton","6528","4,7,5","reverse","true"
"html-keyboard-response","70","578570","0.0-14.0-3.0","1005","digit-span","true","0","","null","<div class = centerbox><div class = center-text>3 Digits</p></div>","null","test_intro","","","","","","","","","","","","","","",""
"poldrack-multi-stim-multi-response","71","583176","0.0-14.0-4.0","1005","digit-span","true","0","","[-1]","","","stim","","[""<div class = centerbox><div class = digit-span-text>2</div></div>"",""<div class = centerbox><div class = digit-span-text>5</div></div>"",""<div class = centerbox><div class = digit-span-text>9</div></div>""]","[-1]","none","[1000,1000,1000]","3600","0","test","2,5,9","3","","","","",""
"single-stim-button","72","588442","0.0-14.0-5.0","1005","digit-span","true","0","","5263","","","response","","","","","","5263","1000","test","2,5,9","3","SubmitButton","5263","9,5,2","reverse","true"
"html-keyboard-response","73","589444","0.0-15.0-0.0","1005","digit-span","true","0","","null","<div class = centerbox><div class = center-text>4 Digits</p></div>","null","test_intro","","","","","","","","","","","","","","",""
"poldrack-multi-stim-multi-response","74","595249","0.0-15.0-1.0","1005","digit-span","true","0","","[-1]","","","stim","","[""<div class = centerbox><div class = digit-span-text>7</div></div>"",""<div class = centerbox><div class = digit-span-text>2</div></div>"",""<div class = centerbox><div class = digit-span-text>9</div></div>"",""<div class = centerbox><div class = digit-span-text>6</div></div>""]","[-1]","none","[1000,1000,1000,1000]","4800","0","test","7,2,9,6","4","","","","",""
"single-stim-button","75","604341","0.0-15.0-2.0","1005","digit-span","true","0","","9089","","","response","","","","","","9089","1000","test","7,2,9,6","4","SubmitButton","9089","6,7,2,9","reverse","false"
"html-keyboard-response","76","605344","0.0-15.0-3.0","1005","digit-span","true","0","","null","<div class = centerbox><div class = center-text>4 Digits</p></div>","null","test_intro","","","","","","","","","","","","","","",""
"poldrack-multi-stim-multi-response","77","611150","0.0-15.0-4.0","1005","digit-span","true","0","","[-1]","","","stim","","[""<div class = centerbox><div class = digit-span-text>8</div></div>"",""<div class = centerbox><div class = digit-span-text>4</div></div>"",""<div class = centerbox><div class = digit-span-text>9</div></div>"",""<div class = centerbox><div class = digit-span-text>3</div></div>""]","[-1]","none","[1000,1000,1000,1000]","4800","0","test","8,4,9,3","4","","","","",""
"single-stim-button","78","619670","0.0-15.0-5.0","1005","digit-span","true","0","","8518","","","response","","","","","","8518","1000","test","8,4,9,3","4","SubmitButton","8518","3,9,4,8","reverse","true"
"html-keyboard-response","79","620672","0.0-16.0-0.0","1005","digit-span","true","0","","null","<div class = centerbox><div class = center-text>5 Digits</p></div>","null","test_intro","","","","","","","","","","","","","","",""
"poldrack-multi-stim-multi-response","80","627679","0.0-16.0-1.0","1005","digit-span","true","0","","[-1]","","","stim","","[""<div class = centerbox><div class = digit-span-text>4</div></div>"",""<div class = centerbox><div class = digit-span-text>1</div></div>"",""<div class = centerbox><div class = digit-span-text>3</div></div>"",""<div class = centerbox><div class = digit-span-text>5</div></div>"",""<div class = centerbox><div class = digit-span-text>7</div></div>""]","[-1]","none","[1000,1000,1000,1000,1000]","6000","0","test","4,1,3,5,7","5","","","","",""
"single-stim-button","81","638504","0.0-16.0-2.0","1005","digit-span","true","0","","10817","","","response","","","","","","10817","1000","test","4,1,3,5,7","5","SubmitButton","10817","7,5,6,3,2","reverse","false"
"html-keyboard-response","82","639506","0.0-16.0-3.0","1005","digit-span","true","0","","null","<div class = centerbox><div class = center-text>5 Digits</p></div>","null","test_intro","","","","","","","","","","","","","","",""
"poldrack-multi-stim-multi-response","83","646513","0.0-16.0-4.0","1005","digit-span","true","0","","[-1]","","","stim","","[""<div class = centerbox><div class = digit-span-text>9</div></div>"",""<div class = centerbox><div class = digit-span-text>7</div></div>"",""<div class = centerbox><div class = digit-span-text>8</div></div>"",""<div class = centerbox><div class = digit-span-text>5</div></div>"",""<div class = centerbox><div class = digit-span-text>2</div></div>""]","[-1]","none","[1000,1000,1000,1000,1000]","6000","0","test","9,7,8,5,2","5","","","","",""
"single-stim-button","84","665158","0.0-16.0-5.0","1005","digit-span","true","0","","18643","","","response","","","","","","18643","1000","test","9,7,8,5,2","5","SubmitButton","18643","2,5,8,9,7","reverse","false"
"image-keyboard-response","85","669562","0.0-20.0","1005","digit-span","true","0","","4402.799999952316","img/trophy2.jpeg","13","end","","","","","","","","","","","","","","",""
