"trial_type","trial_index","time_elapsed","internal_node_id","subject","exp_id","full_screen","focus_shifts","success","rt","stimulus","key_press","trial_id","view_history","stimuli","key_presses","possible_responses","stim_durations","block_duration","timing_post_trial","exp_stage","sequence","num_digits","mouse_click","stim_duration","response","condition","correct"
"pavlovia","0","1518","0.0-0.0","1016","digit-span","true","0","","","","","","","","","","","","","","","","","","","",""
"fullscreen","1","6880","0.0-1.0","1016","digit-span","true","0","true","","","","","","","","","","","","","","","","","","",""
"html-keyboard-response","2","11160","0.0-2.0-0.0","1016","digit-span","true","0","","4277.899999976158","<div class = centerbox><p class = center-block-text>Welcome to the number game! It will take less than 5 minutes. Press <strong>""Enter/Return""</strong> to begin.</p></div>","13","instruction","","","","","","","","","","","","","","",""
"instructions","3","58386","0.0-2.0-1.0","1016","digit-span","true","1","","47226.700000047684","","","instruction","[{""page_index"":0,""viewing_time"":47226.10000002384}]","","","","","","","","","","","","","",""
"instructions","4","329266","0.0-2.0-2.0","1016","digit-span","true","8","","269883.89999997616","","","instruction","[{""page_index"":0,""viewing_time"":269882.5}]","","","","","","","","","","","","","",""
"html-keyboard-response","5","331285","0.0-3.0-0.0","1016","digit-span","true","0","","null","<div class = centerbox><div class = center-text>2 Digits</p></div>","null","test_intro","","","","","","","","","","","","","","",""
"poldrack-multi-stim-multi-response","6","334699","0.0-3.0-1.0","1016","digit-span","true","0","","[-1]","","","stim","","[""<div class = centerbox><div class = digit-span-text>2</div></div>"",""<div class = centerbox><div class = digit-span-text>9</div></div>""]","[-1]","none","[1000,1000]","2400","0","test","2,9","2","","","","",""
"single-stim-button","7","338672","0.0-3.0-2.0","1016","digit-span","true","0","","3969","","","response","","","","","","3969","1000","test","2,9","2","SubmitButton","3969","2,9","forward","true"
"html-keyboard-response","8","339679","0.0-3.0-3.0","1016","digit-span","true","0","","null","<div class = centerbox><div class = center-text>2 Digits</p></div>","null","test_intro","","","","","","","","","","","","","","",""
"poldrack-multi-stim-multi-response","9","343085","0.0-3.0-4.0","1016","digit-span","true","0","","[-1]","","","stim","","[""<div class = centerbox><div class = digit-span-text>4</div></div>"",""<div class = centerbox><div class = digit-span-text>6</div></div>""]","[-1]","none","[1000,1000]","2400","0","test","4,6","2","","","","",""
"single-stim-button","10","358947","0.0-3.0-5.0","1016","digit-span","true","0","","15859","","","response","","","","","","15859","1000","test","4,6","2","SubmitButton","15859","4,6","forward","true"
"html-keyboard-response","11","359952","0.0-4.0-0.0","1016","digit-span","true","0","","null","<div class = centerbox><div class = center-text>3 Digits</p></div>","null","test_intro","","","","","","","","","","","","","","",""
"poldrack-multi-stim-multi-response","12","364559","0.0-4.0-1.0","1016","digit-span","true","0","","[-1]","","","stim","","[""<div class = centerbox><div class = digit-span-text>3</div></div>"",""<div class = centerbox><div class = digit-span-text>8</div></div>"",""<div class = centerbox><div class = digit-span-text>6</div></div>""]","[-1]","none","[1000,1000,1000]","3600","0","test","3,8,6","3","","","","",""
"single-stim-button","13","367965","0.0-4.0-2.0","1016","digit-span","true","0","","3404","","","response","","","","","","3404","1000","test","3,8,6","3","SubmitButton","3404","3,8,6","forward","true"
"html-keyboard-response","14","368970","0.0-4.0-3.0","1016","digit-span","true","0","","null","<div class = centerbox><div class = center-text>3 Digits</p></div>","null","test_intro","","","","","","","","","","","","","","",""
"poldrack-multi-stim-multi-response","15","373577","0.0-4.0-4.0","1016","digit-span","true","0","","[-1]","","","stim","","[""<div class = centerbox><div class = digit-span-text>6</div></div>"",""<div class = centerbox><div class = digit-span-text>1</div></div>"",""<div class = centerbox><div class = digit-span-text>2</div></div>""]","[-1]","none","[1000,1000,1000]","3600","0","test","6,1,2","3","","","","",""
"single-stim-button","16","380050","0.0-4.0-5.0","1016","digit-span","true","0","","6471","","","response","","","","","","6471","1000","test","6,1,2","3","SubmitButton","6471","6,1,2","forward","true"
"html-keyboard-response","17","381054","0.0-5.0-0.0","1016","digit-span","true","0","","null","<div class = centerbox><div class = center-text>4 Digits</p></div>","null","test_intro","","","","","","","","","","","","","","",""
"poldrack-multi-stim-multi-response","18","386862","0.0-5.0-1.0","1016","digit-span","true","0","","[-1]","","","stim","","[""<div class = centerbox><div class = digit-span-text>3</div></div>"",""<div class = centerbox><div class = digit-span-text>4</div></div>"",""<div class = centerbox><div class = digit-span-text>1</div></div>"",""<div class = centerbox><div class = digit-span-text>7</div></div>""]","[-1]","none","[1000,1000,1000,1000]","4800","0","test","3,4,1,7","4","","","","",""
"single-stim-button","19","390543","0.0-5.0-2.0","1016","digit-span","true","0","","3678","","","response","","","","","","3678","1000","test","3,4,1,7","4","SubmitButton","3678","3,1,7","forward","false"
"html-keyboard-response","20","391550","0.0-5.0-3.0","1016","digit-span","true","0","","null","<div class = centerbox><div class = center-text>4 Digits</p></div>","null","test_intro","","","","","","","","","","","","","","",""
"poldrack-multi-stim-multi-response","21","397356","0.0-5.0-4.0","1016","digit-span","true","0","","[-1]","","","stim","","[""<div class = centerbox><div class = digit-span-text>6</div></div>"",""<div class = centerbox><div class = digit-span-text>1</div></div>"",""<div class = centerbox><div class = digit-span-text>5</div></div>"",""<div class = centerbox><div class = digit-span-text>8</div></div>""]","[-1]","none","[1000,1000,1000,1000]","4800","0","test","6,1,5,8","4","","","","",""
"single-stim-button","22","401331","0.0-5.0-5.0","1016","digit-span","true","0","","3974","","","response","","","","","","3974","1000","test","6,1,5,8","4","SubmitButton","3974","6,1,5,8","forward","true"
"html-keyboard-response","23","402337","0.0-6.0-0.0","1016","digit-span","true","0","","null","<div class = centerbox><div class = center-text>5 Digits</p></div>","null","test_intro","","","","","","","","","","","","","","",""
"poldrack-multi-stim-multi-response","24","409347","0.0-6.0-1.0","1016","digit-span","true","0","","[-1]","","","stim","","[""<div class = centerbox><div class = digit-span-text>8</div></div>"",""<div class = centerbox><div class = digit-span-text>4</div></div>"",""<div class = centerbox><div class = digit-span-text>2</div></div>"",""<div class = centerbox><div class = digit-span-text>3</div></div>"",""<div class = centerbox><div class = digit-span-text>9</div></div>""]","[-1]","none","[1000,1000,1000,1000,1000]","6000","0","test","8,4,2,3,9","5","","","","",""
"single-stim-button","25","412742","0.0-6.0-2.0","1016","digit-span","true","0","","3393","","","response","","","","","","3393","1000","test","8,4,2,3,9","5","SubmitButton","3393","8,1,2,3","forward","false"
"html-keyboard-response","26","413746","0.0-6.0-3.0","1016","digit-span","true","0","","null","<div class = centerbox><div class = center-text>5 Digits</p></div>","null","test_intro","","","","","","","","","","","","","","",""
"poldrack-multi-stim-multi-response","27","420759","0.0-6.0-4.0","1016","digit-span","true","0","","[-1]","","","stim","","[""<div class = centerbox><div class = digit-span-text>5</div></div>"",""<div class = centerbox><div class = digit-span-text>2</div></div>"",""<div class = centerbox><div class = digit-span-text>1</div></div>"",""<div class = centerbox><div class = digit-span-text>8</div></div>"",""<div class = centerbox><div class = digit-span-text>6</div></div>""]","[-1]","none","[1000,1000,1000,1000,1000]","6000","0","test","5,2,1,8,6","5","","","","",""
"single-stim-button","28","424910","0.0-6.0-5.0","1016","digit-span","true","0","","4149","","","response","","","","","","4149","1000","test","5,2,1,8,6","5","SubmitButton","4149","5,2,1,8,6","forward","true"
"html-keyboard-response","29","425915","0.0-7.0-0.0","1016","digit-span","true","0","","null","<div class = centerbox><div class = center-text>6 Digits</p></div>","null","test_intro","","","","","","","","","","","","","","",""
"poldrack-multi-stim-multi-response","30","434124","0.0-7.0-1.0","1016","digit-span","true","0","","[-1]","","","stim","","[""<div class = centerbox><div class = digit-span-text>3</div></div>"",""<div class = centerbox><div class = digit-span-text>8</div></div>"",""<div class = centerbox><div class = digit-span-text>9</div></div>"",""<div class = centerbox><div class = digit-span-text>1</div></div>"",""<div class = centerbox><div class = digit-span-text>7</div></div>"",""<div class = centerbox><div class = digit-span-text>4</div></div>""]","[-1]","none","[1000,1000,1000,1000,1000,1000]","7200","0","test","3,8,9,1,7,4","6","","","","",""
"single-stim-button","31","440146","0.0-7.0-2.0","1016","digit-span","true","0","","6020","","","response","","","","","","6020","1000","test","3,8,9,1,7,4","6","SubmitButton","6020","3,8,9,1,7,4","forward","true"
"html-keyboard-response","32","441149","0.0-7.0-3.0","1016","digit-span","true","0","","null","<div class = centerbox><div class = center-text>6 Digits</p></div>","null","test_intro","","","","","","","","","","","","","","",""
"poldrack-multi-stim-multi-response","33","449355","0.0-7.0-4.0","1016","digit-span","true","0","","[-1]","","","stim","","[""<div class = centerbox><div class = digit-span-text>7</div></div>"",""<div class = centerbox><div class = digit-span-text>9</div></div>"",""<div class = centerbox><div class = digit-span-text>6</div></div>"",""<div class = centerbox><div class = digit-span-text>4</div></div>"",""<div class = centerbox><div class = digit-span-text>8</div></div>"",""<div class = centerbox><div class = digit-span-text>3</div></div>""]","[-1]","none","[1000,1000,1000,1000,1000,1000]","7200","0","test","7,9,6,4,8,3","6","","","","",""
"single-stim-button","34","455560","0.0-7.0-5.0","1016","digit-span","true","0","","6203","","","response","","","","","","6203","1000","test","7,9,6,4,8,3","6","SubmitButton","6203","7,9,6,4,8,3","forward","true"
"html-keyboard-response","35","456566","0.0-8.0-0.0","1016","digit-span","true","0","","null","<div class = centerbox><div class = center-text>7 Digits</p></div>","null","test_intro","","","","","","","","","","","","","","",""
"poldrack-multi-stim-multi-response","36","465974","0.0-8.0-1.0","1016","digit-span","true","0","","[-1]","","","stim","","[""<div class = centerbox><div class = digit-span-text>5</div></div>"",""<div class = centerbox><div class = digit-span-text>1</div></div>"",""<div class = centerbox><div class = digit-span-text>7</div></div>"",""<div class = centerbox><div class = digit-span-text>4</div></div>"",""<div class = centerbox><div class = digit-span-text>2</div></div>"",""<div class = centerbox><div class = digit-span-text>3</div></div>"",""<div class = centerbox><div class = digit-span-text>8</div></div>""]","[-1]","none","[1000,1000,1000,1000,1000,1000,1000]","8400","0","test","5,1,7,4,2,3,8","7","","","","",""
"single-stim-button","37","768949","0.0-8.0-2.0","1016","digit-span","true","1","","302968","","","response","","","","","","302968","1000","test","5,1,7,4,2,3,8","7","SubmitButton","302968","5,1,7,4,2,3,8","forward","true"
"html-keyboard-response","38","769957","0.0-8.0-3.0","1016","digit-span","true","0","","null","<div class = centerbox><div class = center-text>7 Digits</p></div>","null","test_intro","","","","","","","","","","","","","","",""
"poldrack-multi-stim-multi-response","39","779363","0.0-8.0-4.0","1016","digit-span","true","0","","[-1]","","","stim","","[""<div class = centerbox><div class = digit-span-text>9</div></div>"",""<div class = centerbox><div class = digit-span-text>8</div></div>"",""<div class = centerbox><div class = digit-span-text>5</div></div>"",""<div class = centerbox><div class = digit-span-text>2</div></div>"",""<div class = centerbox><div class = digit-span-text>1</div></div>"",""<div class = centerbox><div class = digit-span-text>6</div></div>"",""<div class = centerbox><div class = digit-span-text>3</div></div>""]","[-1]","none","[1000,1000,1000,1000,1000,1000,1000]","8400","0","test","9,8,5,2,1,6,3","7","","","","",""
"single-stim-button","40","786314","0.0-8.0-5.0","1016","digit-span","true","0","","6948","","","response","","","","","","6948","1000","test","9,8,5,2,1,6,3","7","SubmitButton","6948","9,8,5,2,1,6,3","forward","true"
"html-keyboard-response","41","787317","0.0-9.0-0.0","1016","digit-span","true","0","","null","<div class = centerbox><div class = center-text>8 Digits</p></div>","null","test_intro","","","","","","","","","","","","","","",""
"poldrack-multi-stim-multi-response","42","797924","0.0-9.0-1.0","1016","digit-span","true","0","","[-1]","","","stim","","[""<div class = centerbox><div class = digit-span-text>1</div></div>"",""<div class = centerbox><div class = digit-span-text>6</div></div>"",""<div class = centerbox><div class = digit-span-text>4</div></div>"",""<div class = centerbox><div class = digit-span-text>5</div></div>"",""<div class = centerbox><div class = digit-span-text>9</div></div>"",""<div class = centerbox><div class = digit-span-text>7</div></div>"",""<div class = centerbox><div class = digit-span-text>6</div></div>"",""<div class = centerbox><div class = digit-span-text>3</div></div>""]","[-1]","none","[1000,1000,1000,1000,1000,1000,1000,1000]","9600","0","test","1,6,4,5,9,7,6,3","8","","","","",""
"single-stim-button","43","806232","0.0-9.0-2.0","1016","digit-span","true","0","","8306","","","response","","","","","","8306","1000","test","1,6,4,5,9,7,6,3","8","SubmitButton","8306","1,6,4,5,9,7,6,3","forward","true"
"html-keyboard-response","44","807236","0.0-9.0-3.0","1016","digit-span","true","0","","null","<div class = centerbox><div class = center-text>8 Digits</p></div>","null","test_intro","","","","","","","","","","","","","","",""
"poldrack-multi-stim-multi-response","45","817844","0.0-9.0-4.0","1016","digit-span","true","0","","[-1]","","","stim","","[""<div class = centerbox><div class = digit-span-text>2</div></div>"",""<div class = centerbox><div class = digit-span-text>9</div></div>"",""<div class = centerbox><div class = digit-span-text>7</div></div>"",""<div class = centerbox><div class = digit-span-text>6</div></div>"",""<div class = centerbox><div class = digit-span-text>3</div></div>"",""<div class = centerbox><div class = digit-span-text>1</div></div>"",""<div class = centerbox><div class = digit-span-text>5</div></div>"",""<div class = centerbox><div class = digit-span-text>4</div></div>""]","[-1]","none","[1000,1000,1000,1000,1000,1000,1000,1000]","9600","0","test","2,9,7,6,3,1,5,4","8","","","","",""
"single-stim-button","46","825350","0.0-9.0-5.0","1016","digit-span","true","0","","7504","","","response","","","","","","7504","1000","test","2,9,7,6,3,1,5,4","8","SubmitButton","7504","2,9,7,6,3,1,5,4","forward","true"
"html-keyboard-response","47","826354","0.0-10.0-0.0","1016","digit-span","true","0","","null","<div class = centerbox><div class = center-text>9 Digits</p></div>","null","test_intro","","","","","","","","","","","","","","",""
"poldrack-multi-stim-multi-response","48","838158","0.0-10.0-1.0","1016","digit-span","true","0","","[-1]","","","stim","","[""<div class = centerbox><div class = digit-span-text>5</div></div>"",""<div class = centerbox><div class = digit-span-text>3</div></div>"",""<div class = centerbox><div class = digit-span-text>8</div></div>"",""<div class = centerbox><div class = digit-span-text>7</div></div>"",""<div class = centerbox><div class = digit-span-text>1</div></div>"",""<div class = centerbox><div class = digit-span-text>2</div></div>"",""<div class = centerbox><div class = digit-span-text>4</div></div>"",""<div class = centerbox><div class = digit-span-text>6</div></div>"",""<div class = centerbox><div class = digit-span-text>9</div></div>""]","[-1]","none","[1000,1000,1000,1000,1000,1000,1000,1000,1000]","10800","0","test","5,3,8,7,1,2,4,6,9","9","","","","",""
"single-stim-button","49","848491","0.0-10.0-2.0","1016","digit-span","true","0","","10331","","","response","","","","","","10331","1000","test","5,3,8,7,1,2,4,6,9","9","SubmitButton","10331","5,3,8,7,1,2,4,6,9","forward","true"
"html-keyboard-response","50","849496","0.0-10.0-3.0","1016","digit-span","true","0","","null","<div class = centerbox><div class = center-text>9 Digits</p></div>","null","test_intro","","","","","","","","","","","","","","",""
"poldrack-multi-stim-multi-response","51","861300","0.0-10.0-4.0","1016","digit-span","true","0","","[-1]","","","stim","","[""<div class = centerbox><div class = digit-span-text>4</div></div>"",""<div class = centerbox><div class = digit-span-text>2</div></div>"",""<div class = centerbox><div class = digit-span-text>6</div></div>"",""<div class = centerbox><div class = digit-span-text>9</div></div>"",""<div class = centerbox><div class = digit-span-text>1</div></div>"",""<div class = centerbox><div class = digit-span-text>7</div></div>"",""<div class = centerbox><div class = digit-span-text>8</div></div>"",""<div class = centerbox><div class = digit-span-text>3</div></div>"",""<div class = centerbox><div class = digit-span-text>5</div></div>""]","[-1]","none","[1000,1000,1000,1000,1000,1000,1000,1000,1000]","10800","0","test","4,2,6,9,1,7,8,3,5","9","","","","",""
"single-stim-button","52","868900","0.0-10.0-5.0","1016","digit-span","true","0","","7597","","","response","","","","","","7597","1000","test","4,2,6,9,1,7,8,3,5","9","SubmitButton","7597","4,2,6,2,1,7,8,3,5","forward","false"
"html-keyboard-response","53","875729","0.0-11.0","1016","digit-span","true","0","","6827.300000071526","<div class = centerbox><p class = block-text>Now, you will see some numbers, but this time you will enter them <strong>backward</strong>.<br><br>For example, you see <strong>“1—5”</strong>, and you will enter <strong>“5—1”</strong>.<br><br><br>Press <strong>""Enter/Return""</strong> to begin.</p></div>","13","start_reverse","","","","","","","","","","","","","","",""
"html-keyboard-response","54","876732","0.0-12.0-0.0","1016","digit-span","true","0","","null","<div class = centerbox><div class = center-text>2 Digits</p></div>","null","test_intro","","","","","","","","","","","","","","",""
"poldrack-multi-stim-multi-response","55","880136","0.0-12.0-1.0","1016","digit-span","true","0","","[-1]","","","stim","","[""<div class = centerbox><div class = digit-span-text>8</div></div>"",""<div class = centerbox><div class = digit-span-text>2</div></div>""]","[-1]","none","[1000,1000]","2400","0","test","8,2","2","","","","",""
"single-stim-button","56","882980","0.0-12.0-2.0","1016","digit-span","true","0","","2842","","","response","","","","","","2842","1000","test","8,2","2","SubmitButton","2842","2,8","practice","true"
"html-keyboard-response","57","892982","0.0-12.0-3.0","1016","digit-span","true","0","","null","<div class = centerbox><div class = center-block-text><span style=""color:green"">Correct!</span></div></div>","null","feedback","","","","","","","","","","","","","","",""
"html-keyboard-response","58","893989","0.0-12.0-4.0","1016","digit-span","true","0","","null","<div class = centerbox><div class = center-text>2 Digits</p></div>","null","test_intro","","","","","","","","","","","","","","",""
"poldrack-multi-stim-multi-response","59","897398","0.0-12.0-5.0","1016","digit-span","true","0","","[-1]","","","stim","","[""<div class = centerbox><div class = digit-span-text>5</div></div>"",""<div class = centerbox><div class = digit-span-text>6</div></div>""]","[-1]","none","[1000,1000]","2400","0","test","5,6","2","","","","",""
"single-stim-button","60","899344","0.0-12.0-6.0","1016","digit-span","true","0","","1944","","","response","","","","","","1944","1000","test","5,6","2","SubmitButton","1944","6,5","practice","true"
"html-keyboard-response","61","900347","0.0-13.0-0.0","1016","digit-span","true","0","","null","<div class = centerbox><div class = center-text>2 Digits</p></div>","null","test_intro","","","","","","","","","","","","","","",""
"poldrack-multi-stim-multi-response","62","903755","0.0-13.0-1.0","1016","digit-span","true","0","","[-1]","","","stim","","[""<div class = centerbox><div class = digit-span-text>2</div></div>"",""<div class = centerbox><div class = digit-span-text>5</div></div>""]","[-1]","none","[1000,1000]","2400","0","test","2,5","2","","","","",""
"single-stim-button","63","906119","0.0-13.0-2.0","1016","digit-span","true","0","","2362","","","response","","","","","","2362","1000","test","2,5","2","SubmitButton","2362","5,2","reverse","true"
"html-keyboard-response","64","907123","0.0-13.0-3.0","1016","digit-span","true","0","","null","<div class = centerbox><div class = center-text>2 Digits</p></div>","null","test_intro","","","","","","","","","","","","","","",""
"poldrack-multi-stim-multi-response","65","910533","0.0-13.0-4.0","1016","digit-span","true","0","","[-1]","","","stim","","[""<div class = centerbox><div class = digit-span-text>6</div></div>"",""<div class = centerbox><div class = digit-span-text>3</div></div>""]","[-1]","none","[1000,1000]","2400","0","test","6,3","2","","","","",""
"single-stim-button","66","915079","0.0-13.0-5.0","1016","digit-span","true","0","","4544","","","response","","","","","","4544","1000","test","6,3","2","SubmitButton","4544","3,6","reverse","true"
"html-keyboard-response","67","916082","0.0-14.0-0.0","1016","digit-span","true","0","","null","<div class = centerbox><div class = center-text>3 Digits</p></div>","null","test_intro","","","","","","","","","","","","","","",""
"poldrack-multi-stim-multi-response","68","920692","0.0-14.0-1.0","1016","digit-span","true","0","","[-1]","","","stim","","[""<div class = centerbox><div class = digit-span-text>5</div></div>"",""<div class = centerbox><div class = digit-span-text>7</div></div>"",""<div class = centerbox><div class = digit-span-text>4</div></div>""]","[-1]","none","[1000,1000,1000]","3600","0","test","5,7,4","3","","","","",""
"single-stim-button","69","1358893","0.0-14.0-2.0","1016","digit-span","true","1","","438197","","","response","","","","","","438197","1000","test","5,7,4","3","SubmitButton","438197","4,7,5","reverse","true"
"html-keyboard-response","70","1359901","0.0-14.0-3.0","1016","digit-span","true","0","","null","<div class = centerbox><div class = center-text>3 Digits</p></div>","null","test_intro","","","","","","","","","","","","","","",""
"poldrack-multi-stim-multi-response","71","1364510","0.0-14.0-4.0","1016","digit-span","true","0","","[-1]","","","stim","","[""<div class = centerbox><div class = digit-span-text>2</div></div>"",""<div class = centerbox><div class = digit-span-text>5</div></div>"",""<div class = centerbox><div class = digit-span-text>9</div></div>""]","[-1]","none","[1000,1000,1000]","3600","0","test","2,5,9","3","","","","",""
"single-stim-button","72","1369024","0.0-14.0-5.0","1016","digit-span","true","0","","4512","","","response","","","","","","4512","1000","test","2,5,9","3","SubmitButton","4512","9,5,2","reverse","true"
"html-keyboard-response","73","1370029","0.0-15.0-0.0","1016","digit-span","true","0","","null","<div class = centerbox><div class = center-text>4 Digits</p></div>","null","test_intro","","","","","","","","","","","","","","",""
"poldrack-multi-stim-multi-response","74","1375838","0.0-15.0-1.0","1016","digit-span","true","0","","[-1]","","","stim","","[""<div class = centerbox><div class = digit-span-text>7</div></div>"",""<div class = centerbox><div class = digit-span-text>2</div></div>"",""<div class = centerbox><div class = digit-span-text>9</div></div>"",""<div class = centerbox><div class = digit-span-text>6</div></div>""]","[-1]","none","[1000,1000,1000,1000]","4800","0","test","7,2,9,6","4","","","","",""
"single-stim-button","75","1381123","0.0-15.0-2.0","1016","digit-span","true","0","","5282","","","response","","","","","","5282","1000","test","7,2,9,6","4","SubmitButton","5282","6,9,2,7","reverse","true"
"html-keyboard-response","76","1382130","0.0-15.0-3.0","1016","digit-span","true","0","","null","<div class = centerbox><div class = center-text>4 Digits</p></div>","null","test_intro","","","","","","","","","","","","","","",""
"poldrack-multi-stim-multi-response","77","1387937","0.0-15.0-4.0","1016","digit-span","true","0","","[-1]","","","stim","","[""<div class = centerbox><div class = digit-span-text>8</div></div>"",""<div class = centerbox><div class = digit-span-text>4</div></div>"",""<div class = centerbox><div class = digit-span-text>9</div></div>"",""<div class = centerbox><div class = digit-span-text>3</div></div>""]","[-1]","none","[1000,1000,1000,1000]","4800","0","test","8,4,9,3","4","","","","",""
"single-stim-button","78","1395767","0.0-15.0-5.0","1016","digit-span","true","0","","7827","","","response","","","","","","7827","1000","test","8,4,9,3","4","SubmitButton","7827","3,9,4,8","reverse","true"
"html-keyboard-response","79","1396770","0.0-16.0-0.0","1016","digit-span","true","0","","null","<div class = centerbox><div class = center-text>5 Digits</p></div>","null","test_intro","","","","","","","","","","","","","","",""
"poldrack-multi-stim-multi-response","80","1403775","0.0-16.0-1.0","1016","digit-span","true","0","","[-1]","","","stim","","[""<div class = centerbox><div class = digit-span-text>4</div></div>"",""<div class = centerbox><div class = digit-span-text>1</div></div>"",""<div class = centerbox><div class = digit-span-text>3</div></div>"",""<div class = centerbox><div class = digit-span-text>5</div></div>"",""<div class = centerbox><div class = digit-span-text>7</div></div>""]","[-1]","none","[1000,1000,1000,1000,1000]","6000","0","test","4,1,3,5,7","5","","","","",""
"single-stim-button","81","1416003","0.0-16.0-2.0","1016","digit-span","true","0","","12226","","","response","","","","","","12226","1000","test","4,1,3,5,7","5","SubmitButton","12226","7,5,3,1,4","reverse","true"
"html-keyboard-response","82","1417008","0.0-16.0-3.0","1016","digit-span","true","0","","null","<div class = centerbox><div class = center-text>5 Digits</p></div>","null","test_intro","","","","","","","","","","","","","","",""
"poldrack-multi-stim-multi-response","83","1424016","0.0-16.0-4.0","1016","digit-span","true","0","","[-1]","","","stim","","[""<div class = centerbox><div class = digit-span-text>9</div></div>"",""<div class = centerbox><div class = digit-span-text>7</div></div>"",""<div class = centerbox><div class = digit-span-text>8</div></div>"",""<div class = centerbox><div class = digit-span-text>5</div></div>"",""<div class = centerbox><div class = digit-span-text>2</div></div>""]","[-1]","none","[1000,1000,1000,1000,1000]","6000","0","test","9,7,8,5,2","5","","","","",""
"single-stim-button","84","1564433","0.0-16.0-5.0","1016","digit-span","true","1","","140415","","","response","","","","","","140415","1000","test","9,7,8,5,2","5","SubmitButton","140415","2,5,8,7,9","reverse","true"
"html-keyboard-response","85","1565440","0.0-17.0-0.0","1016","digit-span","true","0","","null","<div class = centerbox><div class = center-text>6 Digits</p></div>","null","test_intro","","","","","","","","","","","","","","",""
"poldrack-multi-stim-multi-response","86","1573648","0.0-17.0-1.0","1016","digit-span","true","0","","[-1]","","","stim","","[""<div class = centerbox><div class = digit-span-text>1</div></div>"",""<div class = centerbox><div class = digit-span-text>6</div></div>"",""<div class = centerbox><div class = digit-span-text>5</div></div>"",""<div class = centerbox><div class = digit-span-text>2</div></div>"",""<div class = centerbox><div class = digit-span-text>9</div></div>"",""<div class = centerbox><div class = digit-span-text>8</div></div>""]","[-1]","none","[1000,1000,1000,1000,1000,1000]","7200","0","test","1,6,5,2,9,8","6","","","","",""
"single-stim-button","87","1582554","0.0-17.0-2.0","1016","digit-span","true","0","","8903","","","response","","","","","","8903","1000","test","1,6,5,2,9,8","6","SubmitButton","8903","8,9,2,5,1","reverse","false"
"html-keyboard-response","88","1583559","0.0-17.0-3.0","1016","digit-span","true","0","","null","<div class = centerbox><div class = center-text>6 Digits</p></div>","null","test_intro","","","","","","","","","","","","","","",""
"poldrack-multi-stim-multi-response","89","1591767","0.0-17.0-4.0","1016","digit-span","true","0","","[-1]","","","stim","","[""<div class = centerbox><div class = digit-span-text>3</div></div>"",""<div class = centerbox><div class = digit-span-text>6</div></div>"",""<div class = centerbox><div class = digit-span-text>7</div></div>"",""<div class = centerbox><div class = digit-span-text>1</div></div>"",""<div class = centerbox><div class = digit-span-text>9</div></div>"",""<div class = centerbox><div class = digit-span-text>4</div></div>""]","[-1]","none","[1000,1000,1000,1000,1000,1000]","7200","0","test","3,6,7,1,9,4","6","","","","",""
"single-stim-button","90","1600332","0.0-17.0-5.0","1016","digit-span","true","0","","8562","","","response","","","","","","8562","1000","test","3,6,7,1,9,4","6","SubmitButton","8562","4,9,1,7,6,3","reverse","true"
"html-keyboard-response","91","1601338","0.0-18.0-0.0","1016","digit-span","true","0","","null","<div class = centerbox><div class = center-text>7 Digits</p></div>","null","test_intro","","","","","","","","","","","","","","",""
"poldrack-multi-stim-multi-response","92","1610751","0.0-18.0-1.0","1016","digit-span","true","0","","[-1]","","","stim","","[""<div class = centerbox><div class = digit-span-text>8</div></div>"",""<div class = centerbox><div class = digit-span-text>5</div></div>"",""<div class = centerbox><div class = digit-span-text>9</div></div>"",""<div class = centerbox><div class = digit-span-text>2</div></div>"",""<div class = centerbox><div class = digit-span-text>3</div></div>"",""<div class = centerbox><div class = digit-span-text>4</div></div>"",""<div class = centerbox><div class = digit-span-text>2</div></div>""]","[-1]","none","[1000,1000,1000,1000,1000,1000,1000]","8400","0","test","8,5,9,2,3,4,2","7","","","","",""
"single-stim-button","93","1663806","0.0-18.0-2.0","1016","digit-span","true","0","","53052","","","response","","","","","","53052","1000","test","8,5,9,2,3,4,2","7","SubmitButton","53052","2,4,3,2,9,5,8","reverse","true"
"html-keyboard-response","94","1664813","0.0-18.0-3.0","1016","digit-span","true","0","","null","<div class = centerbox><div class = center-text>7 Digits</p></div>","null","test_intro","","","","","","","","","","","","","","",""
"poldrack-multi-stim-multi-response","95","1674219","0.0-18.0-4.0","1016","digit-span","true","0","","[-1]","","","stim","","[""<div class = centerbox><div class = digit-span-text>4</div></div>"",""<div class = centerbox><div class = digit-span-text>5</div></div>"",""<div class = centerbox><div class = digit-span-text>7</div></div>"",""<div class = centerbox><div class = digit-span-text>9</div></div>"",""<div class = centerbox><div class = digit-span-text>2</div></div>"",""<div class = centerbox><div class = digit-span-text>8</div></div>"",""<div class = centerbox><div class = digit-span-text>1</div></div>""]","[-1]","none","[1000,1000,1000,1000,1000,1000,1000]","8400","0","test","4,5,7,9,2,8,1","7","","","","",""
"single-stim-button","96","1697666","0.0-18.0-5.0","1016","digit-span","true","0","","23446","","","response","","","","","","23446","1000","test","4,5,7,9,2,8,1","7","SubmitButton","23446","1,8,2,9,7,5,4","reverse","true"
"html-keyboard-response","97","1698668","0.0-19.0-0.0","1016","digit-span","true","0","","null","<div class = centerbox><div class = center-text>8 Digits</p></div>","null","test_intro","","","","","","","","","","","","","","",""
"poldrack-multi-stim-multi-response","98","1709275","0.0-19.0-1.0","1016","digit-span","true","0","","[-1]","","","stim","","[""<div class = centerbox><div class = digit-span-text>6</div></div>"",""<div class = centerbox><div class = digit-span-text>9</div></div>"",""<div class = centerbox><div class = digit-span-text>1</div></div>"",""<div class = centerbox><div class = digit-span-text>6</div></div>"",""<div class = centerbox><div class = digit-span-text>3</div></div>"",""<div class = centerbox><div class = digit-span-text>2</div></div>"",""<div class = centerbox><div class = digit-span-text>5</div></div>"",""<div class = centerbox><div class = digit-span-text>8</div></div>""]","[-1]","none","[1000,1000,1000,1000,1000,1000,1000,1000]","9600","0","test","6,9,1,6,3,2,5,8","8","","","","",""
"single-stim-button","99","1733804","0.0-19.0-2.0","1016","digit-span","true","0","","24527","","","response","","","","","","24527","1000","test","6,9,1,6,3,2,5,8","8","SubmitButton","24527","8,5,2,3,6,1,9,6","reverse","true"
"html-keyboard-response","100","1734810","0.0-19.0-3.0","1016","digit-span","true","0","","null","<div class = centerbox><div class = center-text>8 Digits</p></div>","null","test_intro","","","","","","","","","","","","","","",""
"poldrack-multi-stim-multi-response","101","1745418","0.0-19.0-4.0","1016","digit-span","true","0","","[-1]","","","stim","","[""<div class = centerbox><div class = digit-span-text>3</div></div>"",""<div class = centerbox><div class = digit-span-text>1</div></div>"",""<div class = centerbox><div class = digit-span-text>7</div></div>"",""<div class = centerbox><div class = digit-span-text>9</div></div>"",""<div class = centerbox><div class = digit-span-text>5</div></div>"",""<div class = centerbox><div class = digit-span-text>4</div></div>"",""<div class = centerbox><div class = digit-span-text>8</div></div>"",""<div class = centerbox><div class = digit-span-text>2</div></div>""]","[-1]","none","[1000,1000,1000,1000,1000,1000,1000,1000]","9600","0","test","3,1,7,9,5,4,8,2","8","","","","",""
"single-stim-button","102","1770798","0.0-19.0-5.0","1016","digit-span","true","0","","25378","","","response","","","","","","25378","1000","test","3,1,7,9,5,4,8,2","8","SubmitButton","25378","2,8,4,5,9,7,1,3","reverse","true"
"image-keyboard-response","103","1773149","0.0-20.0","1016","digit-span","true","0","","2346.399999976158","img/trophy2.jpeg","13","end","","","","","","","","","","","","","","",""
