"trial_type","trial_index","time_elapsed","internal_node_id","subject","order","exp_id","full_screen","focus_shifts","success","rt","stimulus","key_press","trial_id","view_history","stimuli","key_presses","possible_responses","stim_durations","block_duration","timing_post_trial","exp_stage","sequence","num_digits","mouse_click","stim_duration","response","condition","correct"
"pavlovia","0","2586","0.0-0.0","2181","1","digit-span","true","0","","","","","","","","","","","","","","","","","","","",""
"fullscreen","1","6518","0.0-1.0","2181","1","digit-span","true","0","true","","","","","","","","","","","","","","","","","","",""
"html-keyboard-response","2","10394","0.0-2.0-0.0","2181","1","digit-span","true","0","","3873.5999999996275","<div class = centerbox><p class = center-block-text>Welcome to the number game! It will take less than 5 minutes. Press <strong>""Enter/Return""</strong> to begin.</p></div>","13","instruction","","","","","","","","","","","","","","",""
"instructions","3","17244","0.0-2.0-1.0","2181","1","digit-span","true","0","","6848.89999999851","","","instruction","[{""page_index"":0,""viewing_time"":6848.699999999255}]","","","","","","","","","","","","","",""
"instructions","4","24272","0.0-2.0-2.0","2181","1","digit-span","true","0","","6026.800000000745","","","instruction","[{""page_index"":0,""viewing_time"":6026.700000001118}]","","","","","","","","","","","","","",""
"html-keyboard-response","5","26287","0.0-3.0-0.0","2181","1","digit-span","true","0","","null","<div class = centerbox><div class = center-text>2 Digits</p></div>","null","test_intro","","","","","","","","","","","","","","",""
"poldrack-multi-stim-multi-response","6","29707","0.0-3.0-1.0","2181","1","digit-span","true","0","","[-1]","","","stim","","[""<div class = centerbox><div class = digit-span-text>2</div></div>"",""<div class = centerbox><div class = digit-span-text>9</div></div>""]","[-1]","none","[1000,1000]","2400","0","test","2,9","2","","","","",""
"single-stim-button","7","32306","0.0-3.0-2.0","2181","1","digit-span","true","0","","2597","","","response","","","","","","2597","1000","test","2,9","2","SubmitButton","2597","2,9","forward","true"
"html-keyboard-response","8","33308","0.0-3.0-3.0","2181","1","digit-span","true","0","","null","<div class = centerbox><div class = center-text>2 Digits</p></div>","null","test_intro","","","","","","","","","","","","","","",""
"poldrack-multi-stim-multi-response","9","36712","0.0-3.0-4.0","2181","1","digit-span","true","0","","[-1]","","","stim","","[""<div class = centerbox><div class = digit-span-text>4</div></div>"",""<div class = centerbox><div class = digit-span-text>6</div></div>""]","[-1]","none","[1000,1000]","2400","0","test","4,6","2","","","","",""
"single-stim-button","10","39220","0.0-3.0-5.0","2181","1","digit-span","true","0","","2508","","","response","","","","","","2508","1000","test","4,6","2","SubmitButton","2508","4,6","forward","true"
"html-keyboard-response","11","40226","0.0-4.0-0.0","2181","1","digit-span","true","0","","null","<div class = centerbox><div class = center-text>3 Digits</p></div>","null","test_intro","","","","","","","","","","","","","","",""
"poldrack-multi-stim-multi-response","12","44830","0.0-4.0-1.0","2181","1","digit-span","true","0","","[-1]","","","stim","","[""<div class = centerbox><div class = digit-span-text>3</div></div>"",""<div class = centerbox><div class = digit-span-text>8</div></div>"",""<div class = centerbox><div class = digit-span-text>6</div></div>""]","[-1]","none","[1000,1000,1000]","3600","0","test","3,8,6","3","","","","",""
"single-stim-button","13","48776","0.0-4.0-2.0","2181","1","digit-span","true","0","","3944","","","response","","","","","","3944","1000","test","3,8,6","3","SubmitButton","3944","3,8,6","forward","true"
"html-keyboard-response","14","49777","0.0-4.0-3.0","2181","1","digit-span","true","0","","null","<div class = centerbox><div class = center-text>3 Digits</p></div>","null","test_intro","","","","","","","","","","","","","","",""
"poldrack-multi-stim-multi-response","15","54383","0.0-4.0-4.0","2181","1","digit-span","true","0","","[-1]","","","stim","","[""<div class = centerbox><div class = digit-span-text>6</div></div>"",""<div class = centerbox><div class = digit-span-text>1</div></div>"",""<div class = centerbox><div class = digit-span-text>2</div></div>""]","[-1]","none","[1000,1000,1000]","3600","0","test","6,1,2","3","","","","",""
"single-stim-button","16","57873","0.0-4.0-5.0","2181","1","digit-span","true","0","","3489","","","response","","","","","","3489","1000","test","6,1,2","3","SubmitButton","3489","6,1,2","forward","true"
"html-keyboard-response","17","58874","0.0-5.0-0.0","2181","1","digit-span","true","0","","null","<div class = centerbox><div class = center-text>4 Digits</p></div>","null","test_intro","","","","","","","","","","","","","","",""
"poldrack-multi-stim-multi-response","18","64675","0.0-5.0-1.0","2181","1","digit-span","true","0","","[-1]","","","stim","","[""<div class = centerbox><div class = digit-span-text>3</div></div>"",""<div class = centerbox><div class = digit-span-text>4</div></div>"",""<div class = centerbox><div class = digit-span-text>1</div></div>"",""<div class = centerbox><div class = digit-span-text>7</div></div>""]","[-1]","none","[1000,1000,1000,1000]","4800","0","test","3,4,1,7","4","","","","",""
"single-stim-button","19","69588","0.0-5.0-2.0","2181","1","digit-span","true","0","","4911","","","response","","","","","","4911","1000","test","3,4,1,7","4","SubmitButton","4911","3,4,1,7","forward","true"
"html-keyboard-response","20","70590","0.0-5.0-3.0","2181","1","digit-span","true","0","","null","<div class = centerbox><div class = center-text>4 Digits</p></div>","null","test_intro","","","","","","","","","","","","","","",""
"poldrack-multi-stim-multi-response","21","76394","0.0-5.0-4.0","2181","1","digit-span","true","0","","[-1]","","","stim","","[""<div class = centerbox><div class = digit-span-text>6</div></div>"",""<div class = centerbox><div class = digit-span-text>1</div></div>"",""<div class = centerbox><div class = digit-span-text>5</div></div>"",""<div class = centerbox><div class = digit-span-text>8</div></div>""]","[-1]","none","[1000,1000,1000,1000]","4800","0","test","6,1,5,8","4","","","","",""
"single-stim-button","22","79685","0.0-5.0-5.0","2181","1","digit-span","true","0","","3290","","","response","","","","","","3290","1000","test","6,1,5,8","4","SubmitButton","3290","6,1,5,8","forward","true"
"html-keyboard-response","23","80687","0.0-6.0-0.0","2181","1","digit-span","true","0","","null","<div class = centerbox><div class = center-text>5 Digits</p></div>","null","test_intro","","","","","","","","","","","","","","",""
"poldrack-multi-stim-multi-response","24","87692","0.0-6.0-1.0","2181","1","digit-span","true","0","","[-1]","","","stim","","[""<div class = centerbox><div class = digit-span-text>8</div></div>"",""<div class = centerbox><div class = digit-span-text>4</div></div>"",""<div class = centerbox><div class = digit-span-text>2</div></div>"",""<div class = centerbox><div class = digit-span-text>3</div></div>"",""<div class = centerbox><div class = digit-span-text>9</div></div>""]","[-1]","none","[1000,1000,1000,1000,1000]","6000","0","test","8,4,2,3,9","5","","","","",""
"single-stim-button","25","92847","0.0-6.0-2.0","2181","1","digit-span","true","0","","5154","","","response","","","","","","5154","1000","test","8,4,2,3,9","5","SubmitButton","5154","8,4,2,3,9","forward","true"
"html-keyboard-response","26","93848","0.0-6.0-3.0","2181","1","digit-span","true","0","","null","<div class = centerbox><div class = center-text>5 Digits</p></div>","null","test_intro","","","","","","","","","","","","","","",""
"poldrack-multi-stim-multi-response","27","100855","0.0-6.0-4.0","2181","1","digit-span","true","0","","[-1]","","","stim","","[""<div class = centerbox><div class = digit-span-text>5</div></div>"",""<div class = centerbox><div class = digit-span-text>2</div></div>"",""<div class = centerbox><div class = digit-span-text>1</div></div>"",""<div class = centerbox><div class = digit-span-text>8</div></div>"",""<div class = centerbox><div class = digit-span-text>6</div></div>""]","[-1]","none","[1000,1000,1000,1000,1000]","6000","0","test","5,2,1,8,6","5","","","","",""
"single-stim-button","28","104149","0.0-6.0-5.0","2181","1","digit-span","true","0","","3293","","","response","","","","","","3293","1000","test","5,2,1,8,6","5","SubmitButton","3293","5,2,1,8,6","forward","true"
"html-keyboard-response","29","105151","0.0-7.0-0.0","2181","1","digit-span","true","0","","null","<div class = centerbox><div class = center-text>6 Digits</p></div>","null","test_intro","","","","","","","","","","","","","","",""
"poldrack-multi-stim-multi-response","30","113354","0.0-7.0-1.0","2181","1","digit-span","true","0","","[-1]","","","stim","","[""<div class = centerbox><div class = digit-span-text>3</div></div>"",""<div class = centerbox><div class = digit-span-text>8</div></div>"",""<div class = centerbox><div class = digit-span-text>9</div></div>"",""<div class = centerbox><div class = digit-span-text>1</div></div>"",""<div class = centerbox><div class = digit-span-text>7</div></div>"",""<div class = centerbox><div class = digit-span-text>4</div></div>""]","[-1]","none","[1000,1000,1000,1000,1000,1000]","7200","0","test","3,8,9,1,7,4","6","","","","",""
"single-stim-button","31","118634","0.0-7.0-2.0","2181","1","digit-span","true","0","","5278","","","response","","","","","","5278","1000","test","3,8,9,1,7,4","6","SubmitButton","5278","3,8,9,1,7,4","forward","true"
"html-keyboard-response","32","119635","0.0-7.0-3.0","2181","1","digit-span","true","0","","null","<div class = centerbox><div class = center-text>6 Digits</p></div>","null","test_intro","","","","","","","","","","","","","","",""
"poldrack-multi-stim-multi-response","33","127840","0.0-7.0-4.0","2181","1","digit-span","true","0","","[-1]","","","stim","","[""<div class = centerbox><div class = digit-span-text>7</div></div>"",""<div class = centerbox><div class = digit-span-text>9</div></div>"",""<div class = centerbox><div class = digit-span-text>6</div></div>"",""<div class = centerbox><div class = digit-span-text>4</div></div>"",""<div class = centerbox><div class = digit-span-text>8</div></div>"",""<div class = centerbox><div class = digit-span-text>3</div></div>""]","[-1]","none","[1000,1000,1000,1000,1000,1000]","7200","0","test","7,9,6,4,8,3","6","","","","",""
"single-stim-button","34","132582","0.0-7.0-5.0","2181","1","digit-span","true","0","","4742","","","response","","","","","","4742","1000","test","7,9,6,4,8,3","6","SubmitButton","4742","7,9,6,4,8,3","forward","true"
"html-keyboard-response","35","133584","0.0-8.0-0.0","2181","1","digit-span","true","0","","null","<div class = centerbox><div class = center-text>7 Digits</p></div>","null","test_intro","","","","","","","","","","","","","","",""
"poldrack-multi-stim-multi-response","36","142989","0.0-8.0-1.0","2181","1","digit-span","true","0","","[-1]","","","stim","","[""<div class = centerbox><div class = digit-span-text>5</div></div>"",""<div class = centerbox><div class = digit-span-text>1</div></div>"",""<div class = centerbox><div class = digit-span-text>7</div></div>"",""<div class = centerbox><div class = digit-span-text>4</div></div>"",""<div class = centerbox><div class = digit-span-text>2</div></div>"",""<div class = centerbox><div class = digit-span-text>3</div></div>"",""<div class = centerbox><div class = digit-span-text>8</div></div>""]","[-1]","none","[1000,1000,1000,1000,1000,1000,1000]","8400","0","test","5,1,7,4,2,3,8","7","","","","",""
"single-stim-button","37","149578","0.0-8.0-2.0","2181","1","digit-span","true","0","","6588","","","response","","","","","","6588","1000","test","5,1,7,4,2,3,8","7","SubmitButton","6588","5,1,7,4,2,3,8","forward","true"
"html-keyboard-response","38","150579","0.0-8.0-3.0","2181","1","digit-span","true","0","","null","<div class = centerbox><div class = center-text>7 Digits</p></div>","null","test_intro","","","","","","","","","","","","","","",""
"poldrack-multi-stim-multi-response","39","159985","0.0-8.0-4.0","2181","1","digit-span","true","0","","[-1]","","","stim","","[""<div class = centerbox><div class = digit-span-text>9</div></div>"",""<div class = centerbox><div class = digit-span-text>8</div></div>"",""<div class = centerbox><div class = digit-span-text>5</div></div>"",""<div class = centerbox><div class = digit-span-text>2</div></div>"",""<div class = centerbox><div class = digit-span-text>1</div></div>"",""<div class = centerbox><div class = digit-span-text>6</div></div>"",""<div class = centerbox><div class = digit-span-text>3</div></div>""]","[-1]","none","[1000,1000,1000,1000,1000,1000,1000]","8400","0","test","9,8,5,2,1,6,3","7","","","","",""
"single-stim-button","40","167277","0.0-8.0-5.0","2181","1","digit-span","true","0","","7292","","","response","","","","","","7292","1000","test","9,8,5,2,1,6,3","7","SubmitButton","7292","9,8,5,2,1,6,3","forward","true"
"html-keyboard-response","41","168279","0.0-9.0-0.0","2181","1","digit-span","true","0","","null","<div class = centerbox><div class = center-text>8 Digits</p></div>","null","test_intro","","","","","","","","","","","","","","",""
"poldrack-multi-stim-multi-response","42","178884","0.0-9.0-1.0","2181","1","digit-span","true","0","","[-1]","","","stim","","[""<div class = centerbox><div class = digit-span-text>1</div></div>"",""<div class = centerbox><div class = digit-span-text>6</div></div>"",""<div class = centerbox><div class = digit-span-text>4</div></div>"",""<div class = centerbox><div class = digit-span-text>5</div></div>"",""<div class = centerbox><div class = digit-span-text>9</div></div>"",""<div class = centerbox><div class = digit-span-text>7</div></div>"",""<div class = centerbox><div class = digit-span-text>6</div></div>"",""<div class = centerbox><div class = digit-span-text>3</div></div>""]","[-1]","none","[1000,1000,1000,1000,1000,1000,1000,1000]","9600","0","test","1,6,4,5,9,7,6,3","8","","","","",""
"single-stim-button","43","186733","0.0-9.0-2.0","2181","1","digit-span","true","0","","7848","","","response","","","","","","7848","1000","test","1,6,4,5,9,7,6,3","8","SubmitButton","7848","1,8,4,5,9,1,6,3","forward","false"
"html-keyboard-response","44","187734","0.0-9.0-3.0","2181","1","digit-span","true","0","","null","<div class = centerbox><div class = center-text>8 Digits</p></div>","null","test_intro","","","","","","","","","","","","","","",""
"poldrack-multi-stim-multi-response","45","198338","0.0-9.0-4.0","2181","1","digit-span","true","0","","[-1]","","","stim","","[""<div class = centerbox><div class = digit-span-text>2</div></div>"",""<div class = centerbox><div class = digit-span-text>9</div></div>"",""<div class = centerbox><div class = digit-span-text>7</div></div>"",""<div class = centerbox><div class = digit-span-text>6</div></div>"",""<div class = centerbox><div class = digit-span-text>3</div></div>"",""<div class = centerbox><div class = digit-span-text>1</div></div>"",""<div class = centerbox><div class = digit-span-text>5</div></div>"",""<div class = centerbox><div class = digit-span-text>4</div></div>""]","[-1]","none","[1000,1000,1000,1000,1000,1000,1000,1000]","9600","0","test","2,9,7,6,3,1,5,4","8","","","","",""
"single-stim-button","46","205475","0.0-9.0-5.0","2181","1","digit-span","true","0","","7135","","","response","","","","","","7135","1000","test","2,9,7,6,3,1,5,4","8","SubmitButton","7135","2,9,7,6,5,1,3,4","forward","false"
"html-keyboard-response","47","210906","0.0-11.0","2181","1","digit-span","true","0","","5429.800000000745","<div class = centerbox><p class = block-text>Now, you will see some numbers, but this time you will enter them <strong>backward</strong>.<br><br>For example, you see <strong>“1—5”</strong>, and you will enter <strong>“5—1”</strong>.<br><br><br>Press <strong>""Enter/Return""</strong> to begin.</p></div>","13","start_reverse","","","","","","","","","","","","","","",""
"html-keyboard-response","48","211907","0.0-12.0-0.0","2181","1","digit-span","true","0","","null","<div class = centerbox><div class = center-text>2 Digits</p></div>","null","test_intro","","","","","","","","","","","","","","",""
"poldrack-multi-stim-multi-response","49","215310","0.0-12.0-1.0","2181","1","digit-span","true","0","","[-1]","","","stim","","[""<div class = centerbox><div class = digit-span-text>8</div></div>"",""<div class = centerbox><div class = digit-span-text>2</div></div>""]","[-1]","none","[1000,1000]","2400","0","test","8,2","2","","","","",""
"single-stim-button","50","217012","0.0-12.0-2.0","2181","1","digit-span","true","0","","1702","","","response","","","","","","1702","1000","test","8,2","2","SubmitButton","1702","2,8","practice","true"
"html-keyboard-response","51","227014","0.0-12.0-3.0","2181","1","digit-span","true","0","","null","<div class = centerbox><div class = center-block-text><span style=""color:green"">Correct!</span></div></div>","null","feedback","","","","","","","","","","","","","","",""
"html-keyboard-response","52","228020","0.0-12.0-4.0","2181","1","digit-span","true","0","","null","<div class = centerbox><div class = center-text>2 Digits</p></div>","null","test_intro","","","","","","","","","","","","","","",""
"poldrack-multi-stim-multi-response","53","231427","0.0-12.0-5.0","2181","1","digit-span","true","0","","[-1]","","","stim","","[""<div class = centerbox><div class = digit-span-text>5</div></div>"",""<div class = centerbox><div class = digit-span-text>6</div></div>""]","[-1]","none","[1000,1000]","2400","0","test","5,6","2","","","","",""
"single-stim-button","54","233278","0.0-12.0-6.0","2181","1","digit-span","true","0","","1850","","","response","","","","","","1850","1000","test","5,6","2","SubmitButton","1850","6,5","practice","true"
"html-keyboard-response","55","234279","0.0-13.0-0.0","2181","1","digit-span","true","0","","null","<div class = centerbox><div class = center-text>2 Digits</p></div>","null","test_intro","","","","","","","","","","","","","","",""
"poldrack-multi-stim-multi-response","56","237683","0.0-13.0-1.0","2181","1","digit-span","true","0","","[-1]","","","stim","","[""<div class = centerbox><div class = digit-span-text>2</div></div>"",""<div class = centerbox><div class = digit-span-text>5</div></div>""]","[-1]","none","[1000,1000]","2400","0","test","2,5","2","","","","",""
"single-stim-button","57","240007","0.0-13.0-2.0","2181","1","digit-span","true","0","","2323","","","response","","","","","","2323","1000","test","2,5","2","SubmitButton","2323","5,2","reverse","true"
"html-keyboard-response","58","241009","0.0-13.0-3.0","2181","1","digit-span","true","0","","null","<div class = centerbox><div class = center-text>2 Digits</p></div>","null","test_intro","","","","","","","","","","","","","","",""
"poldrack-multi-stim-multi-response","59","244414","0.0-13.0-4.0","2181","1","digit-span","true","0","","[-1]","","","stim","","[""<div class = centerbox><div class = digit-span-text>6</div></div>"",""<div class = centerbox><div class = digit-span-text>3</div></div>""]","[-1]","none","[1000,1000]","2400","0","test","6,3","2","","","","",""
"single-stim-button","60","247199","0.0-13.0-5.0","2181","1","digit-span","true","0","","2782","","","response","","","","","","2782","1000","test","6,3","2","SubmitButton","2782","3,6","reverse","true"
"html-keyboard-response","61","248200","0.0-14.0-0.0","2181","1","digit-span","true","0","","null","<div class = centerbox><div class = center-text>3 Digits</p></div>","null","test_intro","","","","","","","","","","","","","","",""
"poldrack-multi-stim-multi-response","62","252804","0.0-14.0-1.0","2181","1","digit-span","true","0","","[-1]","","","stim","","[""<div class = centerbox><div class = digit-span-text>5</div></div>"",""<div class = centerbox><div class = digit-span-text>7</div></div>"",""<div class = centerbox><div class = digit-span-text>4</div></div>""]","[-1]","none","[1000,1000,1000]","3600","0","test","5,7,4","3","","","","",""
"single-stim-button","63","255292","0.0-14.0-2.0","2181","1","digit-span","true","0","","2487","","","response","","","","","","2487","1000","test","5,7,4","3","SubmitButton","2487","4,7,5","reverse","true"
"html-keyboard-response","64","256294","0.0-14.0-3.0","2181","1","digit-span","true","0","","null","<div class = centerbox><div class = center-text>3 Digits</p></div>","null","test_intro","","","","","","","","","","","","","","",""
"poldrack-multi-stim-multi-response","65","260899","0.0-14.0-4.0","2181","1","digit-span","true","0","","[-1]","","","stim","","[""<div class = centerbox><div class = digit-span-text>2</div></div>"",""<div class = centerbox><div class = digit-span-text>5</div></div>"",""<div class = centerbox><div class = digit-span-text>9</div></div>""]","[-1]","none","[1000,1000,1000]","3600","0","test","2,5,9","3","","","","",""
"single-stim-button","66","266041","0.0-14.0-5.0","2181","1","digit-span","true","0","","5141","","","response","","","","","","5141","1000","test","2,5,9","3","SubmitButton","5141","9,5,2","reverse","true"
"html-keyboard-response","67","267042","0.0-15.0-0.0","2181","1","digit-span","true","0","","null","<div class = centerbox><div class = center-text>4 Digits</p></div>","null","test_intro","","","","","","","","","","","","","","",""
"poldrack-multi-stim-multi-response","68","272847","0.0-15.0-1.0","2181","1","digit-span","true","0","","[-1]","","","stim","","[""<div class = centerbox><div class = digit-span-text>7</div></div>"",""<div class = centerbox><div class = digit-span-text>2</div></div>"",""<div class = centerbox><div class = digit-span-text>9</div></div>"",""<div class = centerbox><div class = digit-span-text>6</div></div>""]","[-1]","none","[1000,1000,1000,1000]","4800","0","test","7,2,9,6","4","","","","",""
"single-stim-button","69","282239","0.0-15.0-2.0","2181","1","digit-span","true","0","","9392","","","response","","","","","","9392","1000","test","7,2,9,6","4","SubmitButton","9392","6,9,2,7","reverse","true"
"html-keyboard-response","70","283242","0.0-15.0-3.0","2181","1","digit-span","true","0","","null","<div class = centerbox><div class = center-text>4 Digits</p></div>","null","test_intro","","","","","","","","","","","","","","",""
"poldrack-multi-stim-multi-response","71","289046","0.0-15.0-4.0","2181","1","digit-span","true","0","","[-1]","","","stim","","[""<div class = centerbox><div class = digit-span-text>8</div></div>"",""<div class = centerbox><div class = digit-span-text>4</div></div>"",""<div class = centerbox><div class = digit-span-text>9</div></div>"",""<div class = centerbox><div class = digit-span-text>3</div></div>""]","[-1]","none","[1000,1000,1000,1000]","4800","0","test","8,4,9,3","4","","","","",""
"single-stim-button","72","298920","0.0-15.0-5.0","2181","1","digit-span","true","0","","9873","","","response","","","","","","9873","1000","test","8,4,9,3","4","SubmitButton","9873","3,9,4,8","reverse","true"
"html-keyboard-response","73","299921","0.0-16.0-0.0","2181","1","digit-span","true","0","","null","<div class = centerbox><div class = center-text>5 Digits</p></div>","null","test_intro","","","","","","","","","","","","","","",""
"poldrack-multi-stim-multi-response","74","306927","0.0-16.0-1.0","2181","1","digit-span","true","0","","[-1]","","","stim","","[""<div class = centerbox><div class = digit-span-text>4</div></div>"",""<div class = centerbox><div class = digit-span-text>1</div></div>"",""<div class = centerbox><div class = digit-span-text>3</div></div>"",""<div class = centerbox><div class = digit-span-text>5</div></div>"",""<div class = centerbox><div class = digit-span-text>7</div></div>""]","[-1]","none","[1000,1000,1000,1000,1000]","6000","0","test","4,1,3,5,7","5","","","","",""
"single-stim-button","75","320085","0.0-16.0-2.0","2181","1","digit-span","true","0","","13157","","","response","","","","","","13157","1000","test","4,1,3,5,7","5","SubmitButton","13157","7,5,3,1,4","reverse","true"
"html-keyboard-response","76","321086","0.0-16.0-3.0","2181","1","digit-span","true","0","","null","<div class = centerbox><div class = center-text>5 Digits</p></div>","null","test_intro","","","","","","","","","","","","","","",""
"poldrack-multi-stim-multi-response","77","328093","0.0-16.0-4.0","2181","1","digit-span","true","0","","[-1]","","","stim","","[""<div class = centerbox><div class = digit-span-text>9</div></div>"",""<div class = centerbox><div class = digit-span-text>7</div></div>"",""<div class = centerbox><div class = digit-span-text>8</div></div>"",""<div class = centerbox><div class = digit-span-text>5</div></div>"",""<div class = centerbox><div class = digit-span-text>2</div></div>""]","[-1]","none","[1000,1000,1000,1000,1000]","6000","0","test","9,7,8,5,2","5","","","","",""
"single-stim-button","78","337965","0.0-16.0-5.0","2181","1","digit-span","true","0","","9871","","","response","","","","","","9871","1000","test","9,7,8,5,2","5","SubmitButton","9871","2,5,8,7,9","reverse","true"
"html-keyboard-response","79","338966","0.0-17.0-0.0","2181","1","digit-span","true","0","","null","<div class = centerbox><div class = center-text>6 Digits</p></div>","null","test_intro","","","","","","","","","","","","","","",""
"poldrack-multi-stim-multi-response","80","347170","0.0-17.0-1.0","2181","1","digit-span","true","0","","[-1]","","","stim","","[""<div class = centerbox><div class = digit-span-text>1</div></div>"",""<div class = centerbox><div class = digit-span-text>6</div></div>"",""<div class = centerbox><div class = digit-span-text>5</div></div>"",""<div class = centerbox><div class = digit-span-text>2</div></div>"",""<div class = centerbox><div class = digit-span-text>9</div></div>"",""<div class = centerbox><div class = digit-span-text>8</div></div>""]","[-1]","none","[1000,1000,1000,1000,1000,1000]","7200","0","test","1,6,5,2,9,8","6","","","","",""
"single-stim-button","81","358479","0.0-17.0-2.0","2181","1","digit-span","true","0","","11308","","","response","","","","","","11308","1000","test","1,6,5,2,9,8","6","SubmitButton","11308","8,9,2,5,6,1","reverse","true"
"html-keyboard-response","82","359481","0.0-17.0-3.0","2181","1","digit-span","true","0","","null","<div class = centerbox><div class = center-text>6 Digits</p></div>","null","test_intro","","","","","","","","","","","","","","",""
"poldrack-multi-stim-multi-response","83","367686","0.0-17.0-4.0","2181","1","digit-span","true","0","","[-1]","","","stim","","[""<div class = centerbox><div class = digit-span-text>3</div></div>"",""<div class = centerbox><div class = digit-span-text>6</div></div>"",""<div class = centerbox><div class = digit-span-text>7</div></div>"",""<div class = centerbox><div class = digit-span-text>1</div></div>"",""<div class = centerbox><div class = digit-span-text>9</div></div>"",""<div class = centerbox><div class = digit-span-text>4</div></div>""]","[-1]","none","[1000,1000,1000,1000,1000,1000]","7200","0","test","3,6,7,1,9,4","6","","","","",""
"single-stim-button","84","375346","0.0-17.0-5.0","2181","1","digit-span","true","0","","7659","","","response","","","","","","7659","1000","test","3,6,7,1,9,4","6","SubmitButton","7659","4,9,1,7,6,3","reverse","true"
"html-keyboard-response","85","376347","0.0-18.0-0.0","2181","1","digit-span","true","0","","null","<div class = centerbox><div class = center-text>7 Digits</p></div>","null","test_intro","","","","","","","","","","","","","","",""
"poldrack-multi-stim-multi-response","86","385751","0.0-18.0-1.0","2181","1","digit-span","true","0","","[-1]","","","stim","","[""<div class = centerbox><div class = digit-span-text>8</div></div>"",""<div class = centerbox><div class = digit-span-text>5</div></div>"",""<div class = centerbox><div class = digit-span-text>9</div></div>"",""<div class = centerbox><div class = digit-span-text>2</div></div>"",""<div class = centerbox><div class = digit-span-text>3</div></div>"",""<div class = centerbox><div class = digit-span-text>4</div></div>"",""<div class = centerbox><div class = digit-span-text>2</div></div>""]","[-1]","none","[1000,1000,1000,1000,1000,1000,1000]","8400","0","test","8,5,9,2,3,4,2","7","","","","",""
"single-stim-button","87","419283","0.0-18.0-2.0","2181","1","digit-span","true","0","","33531","","","response","","","","","","33531","1000","test","8,5,9,2,3,4,2","7","SubmitButton","33531","2,4,3,2,9,8,1","reverse","false"
"html-keyboard-response","88","420285","0.0-18.0-3.0","2181","1","digit-span","true","0","","null","<div class = centerbox><div class = center-text>7 Digits</p></div>","null","test_intro","","","","","","","","","","","","","","",""
"poldrack-multi-stim-multi-response","89","429689","0.0-18.0-4.0","2181","1","digit-span","true","0","","[-1]","","","stim","","[""<div class = centerbox><div class = digit-span-text>4</div></div>"",""<div class = centerbox><div class = digit-span-text>5</div></div>"",""<div class = centerbox><div class = digit-span-text>7</div></div>"",""<div class = centerbox><div class = digit-span-text>9</div></div>"",""<div class = centerbox><div class = digit-span-text>2</div></div>"",""<div class = centerbox><div class = digit-span-text>8</div></div>"",""<div class = centerbox><div class = digit-span-text>1</div></div>""]","[-1]","none","[1000,1000,1000,1000,1000,1000,1000]","8400","0","test","4,5,7,9,2,8,1","7","","","","",""
"single-stim-button","90","445593","0.0-18.0-5.0","2181","1","digit-span","true","0","","15904","","","response","","","","","","15904","1000","test","4,5,7,9,2,8,1","7","SubmitButton","15904","1,8,2,9,7,5,4","reverse","true"
"html-keyboard-response","91","446596","0.0-19.0-0.0","2181","1","digit-span","true","0","","null","<div class = centerbox><div class = center-text>8 Digits</p></div>","null","test_intro","","","","","","","","","","","","","","",""
"poldrack-multi-stim-multi-response","92","457200","0.0-19.0-1.0","2181","1","digit-span","true","0","","[-1]","","","stim","","[""<div class = centerbox><div class = digit-span-text>6</div></div>"",""<div class = centerbox><div class = digit-span-text>9</div></div>"",""<div class = centerbox><div class = digit-span-text>1</div></div>"",""<div class = centerbox><div class = digit-span-text>6</div></div>"",""<div class = centerbox><div class = digit-span-text>3</div></div>"",""<div class = centerbox><div class = digit-span-text>2</div></div>"",""<div class = centerbox><div class = digit-span-text>5</div></div>"",""<div class = centerbox><div class = digit-span-text>8</div></div>""]","[-1]","none","[1000,1000,1000,1000,1000,1000,1000,1000]","9600","0","test","6,9,1,6,3,2,5,8","8","","","","",""
"single-stim-button","93","470952","0.0-19.0-2.0","2181","1","digit-span","true","0","","13750","","","response","","","","","","13750","1000","test","6,9,1,6,3,2,5,8","8","SubmitButton","13750","8,5,2,3,6,9,1","reverse","false"
"html-keyboard-response","94","471954","0.0-19.0-3.0","2181","1","digit-span","true","0","","null","<div class = centerbox><div class = center-text>8 Digits</p></div>","null","test_intro","","","","","","","","","","","","","","",""
"poldrack-multi-stim-multi-response","95","482557","0.0-19.0-4.0","2181","1","digit-span","true","0","","[-1]","","","stim","","[""<div class = centerbox><div class = digit-span-text>3</div></div>"",""<div class = centerbox><div class = digit-span-text>1</div></div>"",""<div class = centerbox><div class = digit-span-text>7</div></div>"",""<div class = centerbox><div class = digit-span-text>9</div></div>"",""<div class = centerbox><div class = digit-span-text>5</div></div>"",""<div class = centerbox><div class = digit-span-text>4</div></div>"",""<div class = centerbox><div class = digit-span-text>8</div></div>"",""<div class = centerbox><div class = digit-span-text>2</div></div>""]","[-1]","none","[1000,1000,1000,1000,1000,1000,1000,1000]","9600","0","test","3,1,7,9,5,4,8,2","8","","","","",""
"single-stim-button","96","497635","0.0-19.0-5.0","2181","1","digit-span","true","0","","15075","","","response","","","","","","15075","1000","test","3,1,7,9,5,4,8,2","8","SubmitButton","15075","2,8,4,5,3,1,9,8","reverse","false"
"image-keyboard-response","97","500543","0.0-20.0","2181","1","digit-span","true","0","","2907.5","img/trophy2.jpeg","13","end","","","","","","","","","","","","","","",""
