"trial_type","trial_index","time_elapsed","internal_node_id","subject","order","exp_id","full_screen","focus_shifts","success","rt","stimulus","key_press","trial_id","view_history","stimuli","key_presses","possible_responses","stim_durations","block_duration","timing_post_trial","exp_stage","sequence","num_digits","mouse_click","stim_duration","response","condition","correct"
"pavlovia","0","2732","0.0-0.0","1319","1","digit-span","true","0","","","","","","","","","","","","","","","","","","","",""
"fullscreen","1","5905","0.0-1.0","1319","1","digit-span","true","0","true","","","","","","","","","","","","","","","","","","",""
"html-keyboard-response","2","16054","0.0-2.0-0.0","1319","1","digit-span","true","0","","10145.80000000447","<div class = centerbox><p class = center-block-text>Welcome to the number game! It will take less than 5 minutes. Press <strong>""Enter/Return""</strong> to begin.</p></div>","13","instruction","","","","","","","","","","","","","","",""
"instructions","3","26198","0.0-2.0-1.0","1319","1","digit-span","true","0","","10142.80000000447","","","instruction","[{""page_index"":0,""viewing_time"":10142.10000000149}]","","","","","","","","","","","","","",""
"instructions","4","40098","0.0-2.0-2.0","1319","1","digit-span","true","0","","12894.20000000298","","","instruction","[{""page_index"":0,""viewing_time"":12893.90000000596}]","","","","","","","","","","","","","",""
"html-keyboard-response","5","42113","0.0-3.0-0.0","1319","1","digit-span","true","0","","null","<div class = centerbox><div class = center-text>2 Digits</p></div>","null","test_intro","","","","","","","","","","","","","","",""
"poldrack-multi-stim-multi-response","6","45529","0.0-3.0-1.0","1319","1","digit-span","true","0","","[-1]","","","stim","","[""<div class = centerbox><div class = digit-span-text>2</div></div>"",""<div class = centerbox><div class = digit-span-text>9</div></div>""]","[-1]","none","[1000,1000]","2400","0","test","2,9","2","","","","",""
"single-stim-button","7","48951","0.0-3.0-2.0","1319","1","digit-span","true","0","","3420","","","response","","","","","","3420","1000","test","2,9","2","SubmitButton","3420","2,9","forward","true"
"html-keyboard-response","8","49962","0.0-3.0-3.0","1319","1","digit-span","true","0","","null","<div class = centerbox><div class = center-text>2 Digits</p></div>","null","test_intro","","","","","","","","","","","","","","",""
"poldrack-multi-stim-multi-response","9","53378","0.0-3.0-4.0","1319","1","digit-span","true","0","","[-1]","","","stim","","[""<div class = centerbox><div class = digit-span-text>4</div></div>"",""<div class = centerbox><div class = digit-span-text>6</div></div>""]","[-1]","none","[1000,1000]","2400","0","test","4,6","2","","","","",""
"single-stim-button","10","55985","0.0-3.0-5.0","1319","1","digit-span","true","0","","2604","","","response","","","","","","2604","1000","test","4,6","2","SubmitButton","2604","4,6","forward","true"
"html-keyboard-response","11","56992","0.0-4.0-0.0","1319","1","digit-span","true","0","","null","<div class = centerbox><div class = center-text>3 Digits</p></div>","null","test_intro","","","","","","","","","","","","","","",""
"poldrack-multi-stim-multi-response","12","61607","0.0-4.0-1.0","1319","1","digit-span","true","0","","[-1]","","","stim","","[""<div class = centerbox><div class = digit-span-text>3</div></div>"",""<div class = centerbox><div class = digit-span-text>8</div></div>"",""<div class = centerbox><div class = digit-span-text>6</div></div>""]","[-1]","none","[1000,1000,1000]","3600","0","test","3,8,6","3","","","","",""
"single-stim-button","13","65818","0.0-4.0-2.0","1319","1","digit-span","true","0","","4209","","","response","","","","","","4209","1000","test","3,8,6","3","SubmitButton","4209","3,8,6","forward","true"
"html-keyboard-response","14","66826","0.0-4.0-3.0","1319","1","digit-span","true","0","","null","<div class = centerbox><div class = center-text>3 Digits</p></div>","null","test_intro","","","","","","","","","","","","","","",""
"poldrack-multi-stim-multi-response","15","71440","0.0-4.0-4.0","1319","1","digit-span","true","0","","[-1]","","","stim","","[""<div class = centerbox><div class = digit-span-text>6</div></div>"",""<div class = centerbox><div class = digit-span-text>1</div></div>"",""<div class = centerbox><div class = digit-span-text>2</div></div>""]","[-1]","none","[1000,1000,1000]","3600","0","test","6,1,2","3","","","","",""
"single-stim-button","16","74219","0.0-4.0-5.0","1319","1","digit-span","true","0","","2778","","","response","","","","","","2778","1000","test","6,1,2","3","SubmitButton","2778","6,1,2","forward","true"
"html-keyboard-response","17","75228","0.0-5.0-0.0","1319","1","digit-span","true","0","","null","<div class = centerbox><div class = center-text>4 Digits</p></div>","null","test_intro","","","","","","","","","","","","","","",""
"poldrack-multi-stim-multi-response","18","81043","0.0-5.0-1.0","1319","1","digit-span","true","0","","[-1]","","","stim","","[""<div class = centerbox><div class = digit-span-text>3</div></div>"",""<div class = centerbox><div class = digit-span-text>4</div></div>"",""<div class = centerbox><div class = digit-span-text>1</div></div>"",""<div class = centerbox><div class = digit-span-text>7</div></div>""]","[-1]","none","[1000,1000,1000,1000]","4800","0","test","3,4,1,7","4","","","","",""
"single-stim-button","19","84436","0.0-5.0-2.0","1319","1","digit-span","true","0","","3393","","","response","","","","","","3393","1000","test","3,4,1,7","4","SubmitButton","3393","3,4,1,7","forward","true"
"html-keyboard-response","20","85443","0.0-5.0-3.0","1319","1","digit-span","true","0","","null","<div class = centerbox><div class = center-text>4 Digits</p></div>","null","test_intro","","","","","","","","","","","","","","",""
"poldrack-multi-stim-multi-response","21","91259","0.0-5.0-4.0","1319","1","digit-span","true","0","","[-1]","","","stim","","[""<div class = centerbox><div class = digit-span-text>6</div></div>"",""<div class = centerbox><div class = digit-span-text>1</div></div>"",""<div class = centerbox><div class = digit-span-text>5</div></div>"",""<div class = centerbox><div class = digit-span-text>8</div></div>""]","[-1]","none","[1000,1000,1000,1000]","4800","0","test","6,1,5,8","4","","","","",""
"single-stim-button","22","94205","0.0-5.0-5.0","1319","1","digit-span","true","0","","2945","","","response","","","","","","2945","1000","test","6,1,5,8","4","SubmitButton","2945","6,1,5,8","forward","true"
"html-keyboard-response","23","95213","0.0-6.0-0.0","1319","1","digit-span","true","0","","null","<div class = centerbox><div class = center-text>5 Digits</p></div>","null","test_intro","","","","","","","","","","","","","","",""
"poldrack-multi-stim-multi-response","24","102226","0.0-6.0-1.0","1319","1","digit-span","true","0","","[-1]","","","stim","","[""<div class = centerbox><div class = digit-span-text>8</div></div>"",""<div class = centerbox><div class = digit-span-text>4</div></div>"",""<div class = centerbox><div class = digit-span-text>2</div></div>"",""<div class = centerbox><div class = digit-span-text>3</div></div>"",""<div class = centerbox><div class = digit-span-text>9</div></div>""]","[-1]","none","[1000,1000,1000,1000,1000]","6000","0","test","8,4,2,3,9","5","","","","",""
"single-stim-button","25","106838","0.0-6.0-2.0","1319","1","digit-span","true","0","","4612","","","response","","","","","","4612","1000","test","8,4,2,3,9","5","SubmitButton","4612","8,4,2,3,9","forward","true"
"html-keyboard-response","26","107845","0.0-6.0-3.0","1319","1","digit-span","true","0","","null","<div class = centerbox><div class = center-text>5 Digits</p></div>","null","test_intro","","","","","","","","","","","","","","",""
"poldrack-multi-stim-multi-response","27","114858","0.0-6.0-4.0","1319","1","digit-span","true","0","","[-1]","","","stim","","[""<div class = centerbox><div class = digit-span-text>5</div></div>"",""<div class = centerbox><div class = digit-span-text>2</div></div>"",""<div class = centerbox><div class = digit-span-text>1</div></div>"",""<div class = centerbox><div class = digit-span-text>8</div></div>"",""<div class = centerbox><div class = digit-span-text>6</div></div>""]","[-1]","none","[1000,1000,1000,1000,1000]","6000","0","test","5,2,1,8,6","5","","","","",""
"single-stim-button","28","120241","0.0-6.0-5.0","1319","1","digit-span","true","0","","5381","","","response","","","","","","5381","1000","test","5,2,1,8,6","5","SubmitButton","5381","5,2,1,8,6","forward","true"
"html-keyboard-response","29","121250","0.0-7.0-0.0","1319","1","digit-span","true","0","","null","<div class = centerbox><div class = center-text>6 Digits</p></div>","null","test_intro","","","","","","","","","","","","","","",""
"poldrack-multi-stim-multi-response","30","129469","0.0-7.0-1.0","1319","1","digit-span","true","0","","[-1]","","","stim","","[""<div class = centerbox><div class = digit-span-text>3</div></div>"",""<div class = centerbox><div class = digit-span-text>8</div></div>"",""<div class = centerbox><div class = digit-span-text>9</div></div>"",""<div class = centerbox><div class = digit-span-text>1</div></div>"",""<div class = centerbox><div class = digit-span-text>7</div></div>"",""<div class = centerbox><div class = digit-span-text>4</div></div>""]","[-1]","none","[1000,1000,1000,1000,1000,1000]","7200","0","test","3,8,9,1,7,4","6","","","","",""
"single-stim-button","31","134825","0.0-7.0-2.0","1319","1","digit-span","true","0","","5354","","","response","","","","","","5354","1000","test","3,8,9,1,7,4","6","SubmitButton","5354","3,1,8,9,7,4","forward","false"
"html-keyboard-response","32","135837","0.0-7.0-3.0","1319","1","digit-span","true","0","","null","<div class = centerbox><div class = center-text>6 Digits</p></div>","null","test_intro","","","","","","","","","","","","","","",""
"poldrack-multi-stim-multi-response","33","144052","0.0-7.0-4.0","1319","1","digit-span","true","0","","[-1]","","","stim","","[""<div class = centerbox><div class = digit-span-text>7</div></div>"",""<div class = centerbox><div class = digit-span-text>9</div></div>"",""<div class = centerbox><div class = digit-span-text>6</div></div>"",""<div class = centerbox><div class = digit-span-text>4</div></div>"",""<div class = centerbox><div class = digit-span-text>8</div></div>"",""<div class = centerbox><div class = digit-span-text>3</div></div>""]","[-1]","none","[1000,1000,1000,1000,1000,1000]","7200","0","test","7,9,6,4,8,3","6","","","","",""
"single-stim-button","34","149226","0.0-7.0-5.0","1319","1","digit-span","true","0","","5173","","","response","","","","","","5173","1000","test","7,9,6,4,8,3","6","SubmitButton","5173","7,9,6,4,8,3","forward","true"
"html-keyboard-response","35","150239","0.0-8.0-0.0","1319","1","digit-span","true","0","","null","<div class = centerbox><div class = center-text>7 Digits</p></div>","null","test_intro","","","","","","","","","","","","","","",""
"poldrack-multi-stim-multi-response","36","159650","0.0-8.0-1.0","1319","1","digit-span","true","0","","[-1]","","","stim","","[""<div class = centerbox><div class = digit-span-text>5</div></div>"",""<div class = centerbox><div class = digit-span-text>1</div></div>"",""<div class = centerbox><div class = digit-span-text>7</div></div>"",""<div class = centerbox><div class = digit-span-text>4</div></div>"",""<div class = centerbox><div class = digit-span-text>2</div></div>"",""<div class = centerbox><div class = digit-span-text>3</div></div>"",""<div class = centerbox><div class = digit-span-text>8</div></div>""]","[-1]","none","[1000,1000,1000,1000,1000,1000,1000]","8400","0","test","5,1,7,4,2,3,8","7","","","","",""
"single-stim-button","37","167728","0.0-8.0-2.0","1319","1","digit-span","true","0","","8076","","","response","","","","","","8076","1000","test","5,1,7,4,2,3,8","7","SubmitButton","8076","5,1,7,4,2,3,8","forward","true"
"html-keyboard-response","38","168735","0.0-8.0-3.0","1319","1","digit-span","true","0","","null","<div class = centerbox><div class = center-text>7 Digits</p></div>","null","test_intro","","","","","","","","","","","","","","",""
"poldrack-multi-stim-multi-response","39","178151","0.0-8.0-4.0","1319","1","digit-span","true","0","","[-1]","","","stim","","[""<div class = centerbox><div class = digit-span-text>9</div></div>"",""<div class = centerbox><div class = digit-span-text>8</div></div>"",""<div class = centerbox><div class = digit-span-text>5</div></div>"",""<div class = centerbox><div class = digit-span-text>2</div></div>"",""<div class = centerbox><div class = digit-span-text>1</div></div>"",""<div class = centerbox><div class = digit-span-text>6</div></div>"",""<div class = centerbox><div class = digit-span-text>3</div></div>""]","[-1]","none","[1000,1000,1000,1000,1000,1000,1000]","8400","0","test","9,8,5,2,1,6,3","7","","","","",""
"single-stim-button","40","186397","0.0-8.0-5.0","1319","1","digit-span","true","0","","8244","","","response","","","","","","8244","1000","test","9,8,5,2,1,6,3","7","SubmitButton","8244","5,8,2,9,1,6,3","forward","false"
"html-keyboard-response","41","187404","0.0-9.0-0.0","1319","1","digit-span","true","0","","null","<div class = centerbox><div class = center-text>8 Digits</p></div>","null","test_intro","","","","","","","","","","","","","","",""
"poldrack-multi-stim-multi-response","42","198022","0.0-9.0-1.0","1319","1","digit-span","true","0","","[-1]","","","stim","","[""<div class = centerbox><div class = digit-span-text>1</div></div>"",""<div class = centerbox><div class = digit-span-text>6</div></div>"",""<div class = centerbox><div class = digit-span-text>4</div></div>"",""<div class = centerbox><div class = digit-span-text>5</div></div>"",""<div class = centerbox><div class = digit-span-text>9</div></div>"",""<div class = centerbox><div class = digit-span-text>7</div></div>"",""<div class = centerbox><div class = digit-span-text>6</div></div>"",""<div class = centerbox><div class = digit-span-text>3</div></div>""]","[-1]","none","[1000,1000,1000,1000,1000,1000,1000,1000]","9600","0","test","1,6,4,5,9,7,6,3","8","","","","",""
"single-stim-button","43","210633","0.0-9.0-2.0","1319","1","digit-span","true","0","","12609","","","response","","","","","","12609","1000","test","1,6,4,5,9,7,6,3","8","SubmitButton","12609","5,9,1,6,4,7,3,6","forward","false"
"html-keyboard-response","44","211640","0.0-9.0-3.0","1319","1","digit-span","true","0","","null","<div class = centerbox><div class = center-text>8 Digits</p></div>","null","test_intro","","","","","","","","","","","","","","",""
"poldrack-multi-stim-multi-response","45","222249","0.0-9.0-4.0","1319","1","digit-span","true","0","","[-1]","","","stim","","[""<div class = centerbox><div class = digit-span-text>2</div></div>"",""<div class = centerbox><div class = digit-span-text>9</div></div>"",""<div class = centerbox><div class = digit-span-text>7</div></div>"",""<div class = centerbox><div class = digit-span-text>6</div></div>"",""<div class = centerbox><div class = digit-span-text>3</div></div>"",""<div class = centerbox><div class = digit-span-text>1</div></div>"",""<div class = centerbox><div class = digit-span-text>5</div></div>"",""<div class = centerbox><div class = digit-span-text>4</div></div>""]","[-1]","none","[1000,1000,1000,1000,1000,1000,1000,1000]","9600","0","test","2,9,7,6,3,1,5,4","8","","","","",""
"single-stim-button","46","230884","0.0-9.0-5.0","1319","1","digit-span","true","0","","8634","","","response","","","","","","8634","1000","test","2,9,7,6,3,1,5,4","8","SubmitButton","8634","2,3,7,6,9,1,3,7","forward","false"
"html-keyboard-response","47","241325","0.0-11.0","1319","1","digit-span","true","0","","10439.09999999404","<div class = centerbox><p class = block-text>Now, you will see some numbers, but this time you will enter them <strong>backward</strong>.<br><br>For example, you see <strong>“1—5”</strong>, and you will enter <strong>“5—1”</strong>.<br><br><br>Press <strong>""Enter/Return""</strong> to begin.</p></div>","13","start_reverse","","","","","","","","","","","","","","",""
"html-keyboard-response","48","242333","0.0-12.0-0.0","1319","1","digit-span","true","0","","null","<div class = centerbox><div class = center-text>2 Digits</p></div>","null","test_intro","","","","","","","","","","","","","","",""
"poldrack-multi-stim-multi-response","49","245741","0.0-12.0-1.0","1319","1","digit-span","true","0","","[-1]","","","stim","","[""<div class = centerbox><div class = digit-span-text>8</div></div>"",""<div class = centerbox><div class = digit-span-text>2</div></div>""]","[-1]","none","[1000,1000]","2400","0","test","8,2","2","","","","",""
"single-stim-button","50","248703","0.0-12.0-2.0","1319","1","digit-span","true","0","","2961","","","response","","","","","","2961","1000","test","8,2","2","SubmitButton","2961","2,8","practice","true"
"html-keyboard-response","51","258710","0.0-12.0-3.0","1319","1","digit-span","true","0","","null","<div class = centerbox><div class = center-block-text><span style=""color:green"">Correct!</span></div></div>","null","feedback","","","","","","","","","","","","","","",""
"html-keyboard-response","52","259720","0.0-12.0-4.0","1319","1","digit-span","true","0","","null","<div class = centerbox><div class = center-text>2 Digits</p></div>","null","test_intro","","","","","","","","","","","","","","",""
"poldrack-multi-stim-multi-response","53","263134","0.0-12.0-5.0","1319","1","digit-span","true","0","","[-1]","","","stim","","[""<div class = centerbox><div class = digit-span-text>5</div></div>"",""<div class = centerbox><div class = digit-span-text>6</div></div>""]","[-1]","none","[1000,1000]","2400","0","test","5,6","2","","","","",""
"single-stim-button","54","265521","0.0-12.0-6.0","1319","1","digit-span","true","0","","2386","","","response","","","","","","2386","1000","test","5,6","2","SubmitButton","2386","6,5","practice","true"
"html-keyboard-response","55","266529","0.0-13.0-0.0","1319","1","digit-span","true","0","","null","<div class = centerbox><div class = center-text>2 Digits</p></div>","null","test_intro","","","","","","","","","","","","","","",""
"poldrack-multi-stim-multi-response","56","269939","0.0-13.0-1.0","1319","1","digit-span","true","0","","[-1]","","","stim","","[""<div class = centerbox><div class = digit-span-text>2</div></div>"",""<div class = centerbox><div class = digit-span-text>5</div></div>""]","[-1]","none","[1000,1000]","2400","0","test","2,5","2","","","","",""
"single-stim-button","57","276506","0.0-13.0-2.0","1319","1","digit-span","true","0","","6566","","","response","","","","","","6566","1000","test","2,5","2","SubmitButton","6566","5,2","reverse","true"
"html-keyboard-response","58","277512","0.0-13.0-3.0","1319","1","digit-span","true","0","","null","<div class = centerbox><div class = center-text>2 Digits</p></div>","null","test_intro","","","","","","","","","","","","","","",""
"poldrack-multi-stim-multi-response","59","280926","0.0-13.0-4.0","1319","1","digit-span","true","0","","[-1]","","","stim","","[""<div class = centerbox><div class = digit-span-text>6</div></div>"",""<div class = centerbox><div class = digit-span-text>3</div></div>""]","[-1]","none","[1000,1000]","2400","0","test","6,3","2","","","","",""
"single-stim-button","60","283790","0.0-13.0-5.0","1319","1","digit-span","true","0","","2862","","","response","","","","","","2862","1000","test","6,3","2","SubmitButton","2862","3,6","reverse","true"
"html-keyboard-response","61","284803","0.0-14.0-0.0","1319","1","digit-span","true","0","","null","<div class = centerbox><div class = center-text>3 Digits</p></div>","null","test_intro","","","","","","","","","","","","","","",""
"poldrack-multi-stim-multi-response","62","289411","0.0-14.0-1.0","1319","1","digit-span","true","0","","[-1]","","","stim","","[""<div class = centerbox><div class = digit-span-text>5</div></div>"",""<div class = centerbox><div class = digit-span-text>7</div></div>"",""<div class = centerbox><div class = digit-span-text>4</div></div>""]","[-1]","none","[1000,1000,1000]","3600","0","test","5,7,4","3","","","","",""
"single-stim-button","63","293023","0.0-14.0-2.0","1319","1","digit-span","true","0","","3611","","","response","","","","","","3611","1000","test","5,7,4","3","SubmitButton","3611","4,7,5","reverse","true"
"html-keyboard-response","64","294034","0.0-14.0-3.0","1319","1","digit-span","true","0","","null","<div class = centerbox><div class = center-text>3 Digits</p></div>","null","test_intro","","","","","","","","","","","","","","",""
"poldrack-multi-stim-multi-response","65","298646","0.0-14.0-4.0","1319","1","digit-span","true","0","","[-1]","","","stim","","[""<div class = centerbox><div class = digit-span-text>2</div></div>"",""<div class = centerbox><div class = digit-span-text>5</div></div>"",""<div class = centerbox><div class = digit-span-text>9</div></div>""]","[-1]","none","[1000,1000,1000]","3600","0","test","2,5,9","3","","","","",""
"single-stim-button","66","301924","0.0-14.0-5.0","1319","1","digit-span","true","0","","3277","","","response","","","","","","3277","1000","test","2,5,9","3","SubmitButton","3277","9,5,2","reverse","true"
"html-keyboard-response","67","302927","0.0-15.0-0.0","1319","1","digit-span","true","0","","null","<div class = centerbox><div class = center-text>4 Digits</p></div>","null","test_intro","","","","","","","","","","","","","","",""
"poldrack-multi-stim-multi-response","68","308744","0.0-15.0-1.0","1319","1","digit-span","true","0","","[-1]","","","stim","","[""<div class = centerbox><div class = digit-span-text>7</div></div>"",""<div class = centerbox><div class = digit-span-text>2</div></div>"",""<div class = centerbox><div class = digit-span-text>9</div></div>"",""<div class = centerbox><div class = digit-span-text>6</div></div>""]","[-1]","none","[1000,1000,1000,1000]","4800","0","test","7,2,9,6","4","","","","",""
"single-stim-button","69","316443","0.0-15.0-2.0","1319","1","digit-span","true","0","","7697","","","response","","","","","","7697","1000","test","7,2,9,6","4","SubmitButton","7697","2,5,9","reverse","false"
"html-keyboard-response","70","317452","0.0-15.0-3.0","1319","1","digit-span","true","0","","null","<div class = centerbox><div class = center-text>4 Digits</p></div>","null","test_intro","","","","","","","","","","","","","","",""
"poldrack-multi-stim-multi-response","71","323265","0.0-15.0-4.0","1319","1","digit-span","true","0","","[-1]","","","stim","","[""<div class = centerbox><div class = digit-span-text>8</div></div>"",""<div class = centerbox><div class = digit-span-text>4</div></div>"",""<div class = centerbox><div class = digit-span-text>9</div></div>"",""<div class = centerbox><div class = digit-span-text>3</div></div>""]","[-1]","none","[1000,1000,1000,1000]","4800","0","test","8,4,9,3","4","","","","",""
"single-stim-button","72","334411","0.0-15.0-5.0","1319","1","digit-span","true","0","","11144","","","response","","","","","","11144","1000","test","8,4,9,3","4","SubmitButton","11144","3,9,4,8","reverse","true"
"html-keyboard-response","73","335419","0.0-16.0-0.0","1319","1","digit-span","true","0","","null","<div class = centerbox><div class = center-text>5 Digits</p></div>","null","test_intro","","","","","","","","","","","","","","",""
"poldrack-multi-stim-multi-response","74","342433","0.0-16.0-1.0","1319","1","digit-span","true","0","","[-1]","","","stim","","[""<div class = centerbox><div class = digit-span-text>4</div></div>"",""<div class = centerbox><div class = digit-span-text>1</div></div>"",""<div class = centerbox><div class = digit-span-text>3</div></div>"",""<div class = centerbox><div class = digit-span-text>5</div></div>"",""<div class = centerbox><div class = digit-span-text>7</div></div>""]","[-1]","none","[1000,1000,1000,1000,1000]","6000","0","test","4,1,3,5,7","5","","","","",""
"single-stim-button","75","356747","0.0-16.0-2.0","1319","1","digit-span","true","0","","14312","","","response","","","","","","14312","1000","test","4,1,3,5,7","5","SubmitButton","14312","7,5,3,1,4","reverse","true"
"html-keyboard-response","76","357754","0.0-16.0-3.0","1319","1","digit-span","true","0","","null","<div class = centerbox><div class = center-text>5 Digits</p></div>","null","test_intro","","","","","","","","","","","","","","",""
"poldrack-multi-stim-multi-response","77","364764","0.0-16.0-4.0","1319","1","digit-span","true","0","","[-1]","","","stim","","[""<div class = centerbox><div class = digit-span-text>9</div></div>"",""<div class = centerbox><div class = digit-span-text>7</div></div>"",""<div class = centerbox><div class = digit-span-text>8</div></div>"",""<div class = centerbox><div class = digit-span-text>5</div></div>"",""<div class = centerbox><div class = digit-span-text>2</div></div>""]","[-1]","none","[1000,1000,1000,1000,1000]","6000","0","test","9,7,8,5,2","5","","","","",""
"single-stim-button","78","375131","0.0-16.0-5.0","1319","1","digit-span","true","0","","10366","","","response","","","","","","10366","1000","test","9,7,8,5,2","5","SubmitButton","10366","2,5,8,7,9","reverse","true"
"html-keyboard-response","79","376138","0.0-17.0-0.0","1319","1","digit-span","true","0","","null","<div class = centerbox><div class = center-text>6 Digits</p></div>","null","test_intro","","","","","","","","","","","","","","",""
"poldrack-multi-stim-multi-response","80","384349","0.0-17.0-1.0","1319","1","digit-span","true","0","","[-1]","","","stim","","[""<div class = centerbox><div class = digit-span-text>1</div></div>"",""<div class = centerbox><div class = digit-span-text>6</div></div>"",""<div class = centerbox><div class = digit-span-text>5</div></div>"",""<div class = centerbox><div class = digit-span-text>2</div></div>"",""<div class = centerbox><div class = digit-span-text>9</div></div>"",""<div class = centerbox><div class = digit-span-text>8</div></div>""]","[-1]","none","[1000,1000,1000,1000,1000,1000]","7200","0","test","1,6,5,2,9,8","6","","","","",""
"single-stim-button","81","400434","0.0-17.0-2.0","1319","1","digit-span","true","0","","16085","","","response","","","","","","16085","1000","test","1,6,5,2,9,8","6","SubmitButton","16085","8,9,7,6,2","reverse","false"
"html-keyboard-response","82","401447","0.0-17.0-3.0","1319","1","digit-span","true","0","","null","<div class = centerbox><div class = center-text>6 Digits</p></div>","null","test_intro","","","","","","","","","","","","","","",""
"poldrack-multi-stim-multi-response","83","409661","0.0-17.0-4.0","1319","1","digit-span","true","0","","[-1]","","","stim","","[""<div class = centerbox><div class = digit-span-text>3</div></div>"",""<div class = centerbox><div class = digit-span-text>6</div></div>"",""<div class = centerbox><div class = digit-span-text>7</div></div>"",""<div class = centerbox><div class = digit-span-text>1</div></div>"",""<div class = centerbox><div class = digit-span-text>9</div></div>"",""<div class = centerbox><div class = digit-span-text>4</div></div>""]","[-1]","none","[1000,1000,1000,1000,1000,1000]","7200","0","test","3,6,7,1,9,4","6","","","","",""
"single-stim-button","84","435988","0.0-17.0-5.0","1319","1","digit-span","true","0","","26326","","","response","","","","","","26326","1000","test","3,6,7,1,9,4","6","SubmitButton","26326","4,9,1,7,6,3","reverse","true"
"html-keyboard-response","85","436998","0.0-18.0-0.0","1319","1","digit-span","true","0","","null","<div class = centerbox><div class = center-text>7 Digits</p></div>","null","test_intro","","","","","","","","","","","","","","",""
"poldrack-multi-stim-multi-response","86","446414","0.0-18.0-1.0","1319","1","digit-span","true","0","","[-1]","","","stim","","[""<div class = centerbox><div class = digit-span-text>8</div></div>"",""<div class = centerbox><div class = digit-span-text>5</div></div>"",""<div class = centerbox><div class = digit-span-text>9</div></div>"",""<div class = centerbox><div class = digit-span-text>2</div></div>"",""<div class = centerbox><div class = digit-span-text>3</div></div>"",""<div class = centerbox><div class = digit-span-text>4</div></div>"",""<div class = centerbox><div class = digit-span-text>2</div></div>""]","[-1]","none","[1000,1000,1000,1000,1000,1000,1000]","8400","0","test","8,5,9,2,3,4,2","7","","","","",""
"single-stim-button","87","463907","0.0-18.0-2.0","1319","1","digit-span","true","0","","17492","","","response","","","","","","17492","1000","test","8,5,9,2,3,4,2","7","SubmitButton","17492","2,4,3,2,9,5,8","reverse","true"
"html-keyboard-response","88","464921","0.0-18.0-3.0","1319","1","digit-span","true","0","","null","<div class = centerbox><div class = center-text>7 Digits</p></div>","null","test_intro","","","","","","","","","","","","","","",""
"poldrack-multi-stim-multi-response","89","474336","0.0-18.0-4.0","1319","1","digit-span","true","0","","[-1]","","","stim","","[""<div class = centerbox><div class = digit-span-text>4</div></div>"",""<div class = centerbox><div class = digit-span-text>5</div></div>"",""<div class = centerbox><div class = digit-span-text>7</div></div>"",""<div class = centerbox><div class = digit-span-text>9</div></div>"",""<div class = centerbox><div class = digit-span-text>2</div></div>"",""<div class = centerbox><div class = digit-span-text>8</div></div>"",""<div class = centerbox><div class = digit-span-text>1</div></div>""]","[-1]","none","[1000,1000,1000,1000,1000,1000,1000]","8400","0","test","4,5,7,9,2,8,1","7","","","","",""
"single-stim-button","90","496844","0.0-18.0-5.0","1319","1","digit-span","true","0","","22506","","","response","","","","","","22506","1000","test","4,5,7,9,2,8,1","7","SubmitButton","22506","1,8,2,9,7,5,4","reverse","true"
"html-keyboard-response","91","497853","0.0-19.0-0.0","1319","1","digit-span","true","0","","null","<div class = centerbox><div class = center-text>8 Digits</p></div>","null","test_intro","","","","","","","","","","","","","","",""
"poldrack-multi-stim-multi-response","92","508465","0.0-19.0-1.0","1319","1","digit-span","true","0","","[-1]","","","stim","","[""<div class = centerbox><div class = digit-span-text>6</div></div>"",""<div class = centerbox><div class = digit-span-text>9</div></div>"",""<div class = centerbox><div class = digit-span-text>1</div></div>"",""<div class = centerbox><div class = digit-span-text>6</div></div>"",""<div class = centerbox><div class = digit-span-text>3</div></div>"",""<div class = centerbox><div class = digit-span-text>2</div></div>"",""<div class = centerbox><div class = digit-span-text>5</div></div>"",""<div class = centerbox><div class = digit-span-text>8</div></div>""]","[-1]","none","[1000,1000,1000,1000,1000,1000,1000,1000]","9600","0","test","6,9,1,6,3,2,5,8","8","","","","",""
"single-stim-button","93","534614","0.0-19.0-2.0","1319","1","digit-span","true","0","","26148","","","response","","","","","","26148","1000","test","6,9,1,6,3,2,5,8","8","SubmitButton","26148","4,8,5,9,2,6,6,1","reverse","false"
"html-keyboard-response","94","535627","0.0-19.0-3.0","1319","1","digit-span","true","0","","null","<div class = centerbox><div class = center-text>8 Digits</p></div>","null","test_intro","","","","","","","","","","","","","","",""
"poldrack-multi-stim-multi-response","95","546239","0.0-19.0-4.0","1319","1","digit-span","true","0","","[-1]","","","stim","","[""<div class = centerbox><div class = digit-span-text>3</div></div>"",""<div class = centerbox><div class = digit-span-text>1</div></div>"",""<div class = centerbox><div class = digit-span-text>7</div></div>"",""<div class = centerbox><div class = digit-span-text>9</div></div>"",""<div class = centerbox><div class = digit-span-text>5</div></div>"",""<div class = centerbox><div class = digit-span-text>4</div></div>"",""<div class = centerbox><div class = digit-span-text>8</div></div>"",""<div class = centerbox><div class = digit-span-text>2</div></div>""]","[-1]","none","[1000,1000,1000,1000,1000,1000,1000,1000]","9600","0","test","3,1,7,9,5,4,8,2","8","","","","",""
"single-stim-button","96","561400","0.0-19.0-5.0","1319","1","digit-span","true","0","","15159","","","response","","","","","","15159","1000","test","3,1,7,9,5,4,8,2","8","SubmitButton","15159","5,9,7,4,8,5,2,6","reverse","false"
"image-keyboard-response","97","562960","0.0-20.0","1319","1","digit-span","true","0","","1558.6999999955297","img/trophy2.jpeg","13","end","","","","","","","","","","","","","","",""
