"trial_type","trial_index","time_elapsed","internal_node_id","subject","exp_id","full_screen","focus_shifts","success","rt","stimulus","key_press","trial_id","view_history","stimuli","key_presses","possible_responses","stim_durations","block_duration","timing_post_trial","exp_stage","sequence","num_digits","mouse_click","stim_duration","response","condition","correct"
"pavlovia","0","2966","0.0-0.0","1250","digit-span","true","0","","","","","","","","","","","","","","","","","","","",""
"fullscreen","1","8785","0.0-1.0","1250","digit-span","true","0","true","","","","","","","","","","","","","","","","","","",""
"html-keyboard-response","2","12281","0.0-2.0-0.0","1250","digit-span","true","0","","3488.9000000001397","<div class = centerbox><p class = center-block-text>Welcome to the number game! It will take less than 5 minutes. Press <strong>""Enter/Return""</strong> to begin.</p></div>","13","instruction","","","","","","","","","","","","","","",""
"instructions","3","27139","0.0-2.0-1.0","1250","digit-span","true","0","","14856.199999999953","","","instruction","[{""page_index"":0,""viewing_time"":14855.199999999953}]","","","","","","","","","","","","","",""
"instructions","4","33814","0.0-2.0-2.0","1250","digit-span","true","0","","5671","","","instruction","[{""page_index"":0,""viewing_time"":5670.40000000014}]","","","","","","","","","","","","","",""
"html-keyboard-response","5","35819","0.0-3.0-0.0","1250","digit-span","true","0","","null","<div class = centerbox><div class = center-text>2 Digits</p></div>","null","test_intro","","","","","","","","","","","","","","",""
"poldrack-multi-stim-multi-response","6","39237","0.0-3.0-1.0","1250","digit-span","true","0","","[-1]","","","stim","","[""<div class = centerbox><div class = digit-span-text>2</div></div>"",""<div class = centerbox><div class = digit-span-text>9</div></div>""]","[-1]","none","[1000,1000]","2400","0","test","2,9","2","","","","",""
"single-stim-button","7","43938","0.0-3.0-2.0","1250","digit-span","true","0","","4692","","","response","","","","","","4692","1000","test","2,9","2","SubmitButton","4692","2,9","forward","true"
"html-keyboard-response","8","44945","0.0-3.0-3.0","1250","digit-span","true","0","","null","<div class = centerbox><div class = center-text>2 Digits</p></div>","null","test_intro","","","","","","","","","","","","","","",""
"poldrack-multi-stim-multi-response","9","48351","0.0-3.0-4.0","1250","digit-span","true","0","","[-1]","","","stim","","[""<div class = centerbox><div class = digit-span-text>4</div></div>"",""<div class = centerbox><div class = digit-span-text>6</div></div>""]","[-1]","none","[1000,1000]","2400","0","test","4,6","2","","","","",""
"single-stim-button","10","51755","0.0-3.0-5.0","1250","digit-span","true","0","","3400","","","response","","","","","","3400","1000","test","4,6","2","SubmitButton","3400","4,6","forward","true"
"html-keyboard-response","11","52758","0.0-4.0-0.0","1250","digit-span","true","0","","null","<div class = centerbox><div class = center-text>3 Digits</p></div>","null","test_intro","","","","","","","","","","","","","","",""
"poldrack-multi-stim-multi-response","12","57364","0.0-4.0-1.0","1250","digit-span","true","0","","[-1]","","","stim","","[""<div class = centerbox><div class = digit-span-text>3</div></div>"",""<div class = centerbox><div class = digit-span-text>8</div></div>"",""<div class = centerbox><div class = digit-span-text>6</div></div>""]","[-1]","none","[1000,1000,1000]","3600","0","test","3,8,6","3","","","","",""
"single-stim-button","13","61972","0.0-4.0-2.0","1250","digit-span","true","0","","4606","","","response","","","","","","4606","1000","test","3,8,6","3","SubmitButton","4606","3,8,6","forward","true"
"html-keyboard-response","14","62975","0.0-4.0-3.0","1250","digit-span","true","0","","null","<div class = centerbox><div class = center-text>3 Digits</p></div>","null","test_intro","","","","","","","","","","","","","","",""
"poldrack-multi-stim-multi-response","15","67580","0.0-4.0-4.0","1250","digit-span","true","0","","[-1]","","","stim","","[""<div class = centerbox><div class = digit-span-text>6</div></div>"",""<div class = centerbox><div class = digit-span-text>1</div></div>"",""<div class = centerbox><div class = digit-span-text>2</div></div>""]","[-1]","none","[1000,1000,1000]","3600","0","test","6,1,2","3","","","","",""
"single-stim-button","16","71300","0.0-4.0-5.0","1250","digit-span","true","0","","3716","","","response","","","","","","3716","1000","test","6,1,2","3","SubmitButton","3716","6,1,2","forward","true"
"html-keyboard-response","17","72304","0.0-5.0-0.0","1250","digit-span","true","0","","null","<div class = centerbox><div class = center-text>4 Digits</p></div>","null","test_intro","","","","","","","","","","","","","","",""
"poldrack-multi-stim-multi-response","18","78111","0.0-5.0-1.0","1250","digit-span","true","0","","[-1]","","","stim","","[""<div class = centerbox><div class = digit-span-text>3</div></div>"",""<div class = centerbox><div class = digit-span-text>4</div></div>"",""<div class = centerbox><div class = digit-span-text>1</div></div>"",""<div class = centerbox><div class = digit-span-text>7</div></div>""]","[-1]","none","[1000,1000,1000,1000]","4800","0","test","3,4,1,7","4","","","","",""
"single-stim-button","19","82831","0.0-5.0-2.0","1250","digit-span","true","0","","4716","","","response","","","","","","4716","1000","test","3,4,1,7","4","SubmitButton","4716","3,4,1,7","forward","true"
"html-keyboard-response","20","83836","0.0-5.0-3.0","1250","digit-span","true","0","","null","<div class = centerbox><div class = center-text>4 Digits</p></div>","null","test_intro","","","","","","","","","","","","","","",""
"poldrack-multi-stim-multi-response","21","89642","0.0-5.0-4.0","1250","digit-span","true","0","","[-1]","","","stim","","[""<div class = centerbox><div class = digit-span-text>6</div></div>"",""<div class = centerbox><div class = digit-span-text>1</div></div>"",""<div class = centerbox><div class = digit-span-text>5</div></div>"",""<div class = centerbox><div class = digit-span-text>8</div></div>""]","[-1]","none","[1000,1000,1000,1000]","4800","0","test","6,1,5,8","4","","","","",""
"single-stim-button","22","96106","0.0-5.0-5.0","1250","digit-span","true","0","","6459","","","response","","","","","","6459","1000","test","6,1,5,8","4","SubmitButton","6459","6,1,7,8","forward","false"
"html-keyboard-response","23","97109","0.0-6.0-0.0","1250","digit-span","true","0","","null","<div class = centerbox><div class = center-text>5 Digits</p></div>","null","test_intro","","","","","","","","","","","","","","",""
"poldrack-multi-stim-multi-response","24","104115","0.0-6.0-1.0","1250","digit-span","true","0","","[-1]","","","stim","","[""<div class = centerbox><div class = digit-span-text>8</div></div>"",""<div class = centerbox><div class = digit-span-text>4</div></div>"",""<div class = centerbox><div class = digit-span-text>2</div></div>"",""<div class = centerbox><div class = digit-span-text>3</div></div>"",""<div class = centerbox><div class = digit-span-text>9</div></div>""]","[-1]","none","[1000,1000,1000,1000,1000]","6000","0","test","8,4,2,3,9","5","","","","",""
"single-stim-button","25","110933","0.0-6.0-2.0","1250","digit-span","true","0","","6814","","","response","","","","","","6814","1000","test","8,4,2,3,9","5","SubmitButton","6814","8,4,2,3,9","forward","true"
"html-keyboard-response","26","111937","0.0-6.0-3.0","1250","digit-span","true","0","","null","<div class = centerbox><div class = center-text>5 Digits</p></div>","null","test_intro","","","","","","","","","","","","","","",""
"poldrack-multi-stim-multi-response","27","118942","0.0-6.0-4.0","1250","digit-span","true","0","","[-1]","","","stim","","[""<div class = centerbox><div class = digit-span-text>5</div></div>"",""<div class = centerbox><div class = digit-span-text>2</div></div>"",""<div class = centerbox><div class = digit-span-text>1</div></div>"",""<div class = centerbox><div class = digit-span-text>8</div></div>"",""<div class = centerbox><div class = digit-span-text>6</div></div>""]","[-1]","none","[1000,1000,1000,1000,1000]","6000","0","test","5,2,1,8,6","5","","","","",""
"single-stim-button","28","124311","0.0-6.0-5.0","1250","digit-span","true","0","","5366","","","response","","","","","","5366","1000","test","5,2,1,8,6","5","SubmitButton","5366","5,2,1,8,6","forward","true"
"html-keyboard-response","29","125314","0.0-7.0-0.0","1250","digit-span","true","0","","null","<div class = centerbox><div class = center-text>6 Digits</p></div>","null","test_intro","","","","","","","","","","","","","","",""
"poldrack-multi-stim-multi-response","30","133520","0.0-7.0-1.0","1250","digit-span","true","0","","[-1]","","","stim","","[""<div class = centerbox><div class = digit-span-text>3</div></div>"",""<div class = centerbox><div class = digit-span-text>8</div></div>"",""<div class = centerbox><div class = digit-span-text>9</div></div>"",""<div class = centerbox><div class = digit-span-text>1</div></div>"",""<div class = centerbox><div class = digit-span-text>7</div></div>"",""<div class = centerbox><div class = digit-span-text>4</div></div>""]","[-1]","none","[1000,1000,1000,1000,1000,1000]","7200","0","test","3,8,9,1,7,4","6","","","","",""
"single-stim-button","31","149309","0.0-7.0-2.0","1250","digit-span","true","0","","15785","","","response","","","","","","15785","1000","test","3,8,9,1,7,4","6","SubmitButton","15785","3,8,9,1,7,4","forward","true"
"html-keyboard-response","32","150312","0.0-7.0-3.0","1250","digit-span","true","0","","null","<div class = centerbox><div class = center-text>6 Digits</p></div>","null","test_intro","","","","","","","","","","","","","","",""
"poldrack-multi-stim-multi-response","33","158516","0.0-7.0-4.0","1250","digit-span","true","0","","[-1]","","","stim","","[""<div class = centerbox><div class = digit-span-text>7</div></div>"",""<div class = centerbox><div class = digit-span-text>9</div></div>"",""<div class = centerbox><div class = digit-span-text>6</div></div>"",""<div class = centerbox><div class = digit-span-text>4</div></div>"",""<div class = centerbox><div class = digit-span-text>8</div></div>"",""<div class = centerbox><div class = digit-span-text>3</div></div>""]","[-1]","none","[1000,1000,1000,1000,1000,1000]","7200","0","test","7,9,6,4,8,3","6","","","","",""
"single-stim-button","34","169548","0.0-7.0-5.0","1250","digit-span","true","0","","11029","","","response","","","","","","11029","1000","test","7,9,6,4,8,3","6","SubmitButton","11029","7,9,6,4,8,3","forward","true"
"html-keyboard-response","35","170551","0.0-8.0-0.0","1250","digit-span","true","0","","null","<div class = centerbox><div class = center-text>7 Digits</p></div>","null","test_intro","","","","","","","","","","","","","","",""
"poldrack-multi-stim-multi-response","36","179956","0.0-8.0-1.0","1250","digit-span","true","0","","[-1]","","","stim","","[""<div class = centerbox><div class = digit-span-text>5</div></div>"",""<div class = centerbox><div class = digit-span-text>1</div></div>"",""<div class = centerbox><div class = digit-span-text>7</div></div>"",""<div class = centerbox><div class = digit-span-text>4</div></div>"",""<div class = centerbox><div class = digit-span-text>2</div></div>"",""<div class = centerbox><div class = digit-span-text>3</div></div>"",""<div class = centerbox><div class = digit-span-text>8</div></div>""]","[-1]","none","[1000,1000,1000,1000,1000,1000,1000]","8400","0","test","5,1,7,4,2,3,8","7","","","","",""
"single-stim-button","37","191399","0.0-8.0-2.0","1250","digit-span","true","0","","11440","","","response","","","","","","11440","1000","test","5,1,7,4,2,3,8","7","SubmitButton","11440","5,1,7,4,2,3,8","forward","true"
"html-keyboard-response","38","192408","0.0-8.0-3.0","1250","digit-span","true","0","","null","<div class = centerbox><div class = center-text>7 Digits</p></div>","null","test_intro","","","","","","","","","","","","","","",""
"poldrack-multi-stim-multi-response","39","201814","0.0-8.0-4.0","1250","digit-span","true","0","","[-1]","","","stim","","[""<div class = centerbox><div class = digit-span-text>9</div></div>"",""<div class = centerbox><div class = digit-span-text>8</div></div>"",""<div class = centerbox><div class = digit-span-text>5</div></div>"",""<div class = centerbox><div class = digit-span-text>2</div></div>"",""<div class = centerbox><div class = digit-span-text>1</div></div>"",""<div class = centerbox><div class = digit-span-text>6</div></div>"",""<div class = centerbox><div class = digit-span-text>3</div></div>""]","[-1]","none","[1000,1000,1000,1000,1000,1000,1000]","8400","0","test","9,8,5,2,1,6,3","7","","","","",""
"single-stim-button","40","213859","0.0-8.0-5.0","1250","digit-span","true","0","","12040","","","response","","","","","","12040","1000","test","9,8,5,2,1,6,3","7","SubmitButton","12040","9,8,5,2,1,6,3","forward","true"
"html-keyboard-response","41","214863","0.0-9.0-0.0","1250","digit-span","true","0","","null","<div class = centerbox><div class = center-text>8 Digits</p></div>","null","test_intro","","","","","","","","","","","","","","",""
"poldrack-multi-stim-multi-response","42","225469","0.0-9.0-1.0","1250","digit-span","true","0","","[-1]","","","stim","","[""<div class = centerbox><div class = digit-span-text>1</div></div>"",""<div class = centerbox><div class = digit-span-text>6</div></div>"",""<div class = centerbox><div class = digit-span-text>4</div></div>"",""<div class = centerbox><div class = digit-span-text>5</div></div>"",""<div class = centerbox><div class = digit-span-text>9</div></div>"",""<div class = centerbox><div class = digit-span-text>7</div></div>"",""<div class = centerbox><div class = digit-span-text>6</div></div>"",""<div class = centerbox><div class = digit-span-text>3</div></div>""]","[-1]","none","[1000,1000,1000,1000,1000,1000,1000,1000]","9600","0","test","1,6,4,5,9,7,6,3","8","","","","",""
"single-stim-button","43","238566","0.0-9.0-2.0","1250","digit-span","true","0","","13093","","","response","","","","","","13093","1000","test","1,6,4,5,9,7,6,3","8","SubmitButton","13093","1,6,4,5,9,7,6,3","forward","true"
"html-keyboard-response","44","239574","0.0-9.0-3.0","1250","digit-span","true","0","","null","<div class = centerbox><div class = center-text>8 Digits</p></div>","null","test_intro","","","","","","","","","","","","","","",""
"poldrack-multi-stim-multi-response","45","250179","0.0-9.0-4.0","1250","digit-span","true","0","","[-1]","","","stim","","[""<div class = centerbox><div class = digit-span-text>2</div></div>"",""<div class = centerbox><div class = digit-span-text>9</div></div>"",""<div class = centerbox><div class = digit-span-text>7</div></div>"",""<div class = centerbox><div class = digit-span-text>6</div></div>"",""<div class = centerbox><div class = digit-span-text>3</div></div>"",""<div class = centerbox><div class = digit-span-text>1</div></div>"",""<div class = centerbox><div class = digit-span-text>5</div></div>"",""<div class = centerbox><div class = digit-span-text>4</div></div>""]","[-1]","none","[1000,1000,1000,1000,1000,1000,1000,1000]","9600","0","test","2,9,7,6,3,1,5,4","8","","","","",""
"single-stim-button","46","269221","0.0-9.0-5.0","1250","digit-span","true","0","","19038","","","response","","","","","","19038","1000","test","2,9,7,6,3,1,5,4","8","SubmitButton","19038","2,9,7,6,3,1,5,4","forward","true"
"html-keyboard-response","47","270225","0.0-10.0-0.0","1250","digit-span","true","0","","null","<div class = centerbox><div class = center-text>9 Digits</p></div>","null","test_intro","","","","","","","","","","","","","","",""
"poldrack-multi-stim-multi-response","48","282031","0.0-10.0-1.0","1250","digit-span","true","0","","[-1]","","","stim","","[""<div class = centerbox><div class = digit-span-text>5</div></div>"",""<div class = centerbox><div class = digit-span-text>3</div></div>"",""<div class = centerbox><div class = digit-span-text>8</div></div>"",""<div class = centerbox><div class = digit-span-text>7</div></div>"",""<div class = centerbox><div class = digit-span-text>1</div></div>"",""<div class = centerbox><div class = digit-span-text>2</div></div>"",""<div class = centerbox><div class = digit-span-text>4</div></div>"",""<div class = centerbox><div class = digit-span-text>6</div></div>"",""<div class = centerbox><div class = digit-span-text>9</div></div>""]","[-1]","none","[1000,1000,1000,1000,1000,1000,1000,1000,1000]","10800","0","test","5,3,8,7,1,2,4,6,9","9","","","","",""
"single-stim-button","49","296938","0.0-10.0-2.0","1250","digit-span","true","0","","14904","","","response","","","","","","14904","1000","test","5,3,8,7,1,2,4,6,9","9","SubmitButton","14904","5,3,8,7,1,2,4,6,9","forward","true"
"html-keyboard-response","50","297942","0.0-10.0-3.0","1250","digit-span","true","0","","null","<div class = centerbox><div class = center-text>9 Digits</p></div>","null","test_intro","","","","","","","","","","","","","","",""
"poldrack-multi-stim-multi-response","51","309748","0.0-10.0-4.0","1250","digit-span","true","0","","[-1]","","","stim","","[""<div class = centerbox><div class = digit-span-text>4</div></div>"",""<div class = centerbox><div class = digit-span-text>2</div></div>"",""<div class = centerbox><div class = digit-span-text>6</div></div>"",""<div class = centerbox><div class = digit-span-text>9</div></div>"",""<div class = centerbox><div class = digit-span-text>1</div></div>"",""<div class = centerbox><div class = digit-span-text>7</div></div>"",""<div class = centerbox><div class = digit-span-text>8</div></div>"",""<div class = centerbox><div class = digit-span-text>3</div></div>"",""<div class = centerbox><div class = digit-span-text>5</div></div>""]","[-1]","none","[1000,1000,1000,1000,1000,1000,1000,1000,1000]","10800","0","test","4,2,6,9,1,7,8,3,5","9","","","","",""
"single-stim-button","52","327499","0.0-10.0-5.0","1250","digit-span","true","0","","17747","","","response","","","","","","17747","1000","test","4,2,6,9,1,7,8,3,5","9","SubmitButton","17747","4,2,6,9,1,7,8,3,5","forward","true"
"html-keyboard-response","53","334581","0.0-11.0","1250","digit-span","true","0","","7078.699999999721","<div class = centerbox><p class = block-text>Now, you will see some numbers, but this time you will enter them <strong>backward</strong>.<br><br>For example, you see <strong>“1—5”</strong>, and you will enter <strong>“5—1”</strong>.<br><br><br>Press <strong>""Enter/Return""</strong> to begin.</p></div>","13","start_reverse","","","","","","","","","","","","","","",""
"html-keyboard-response","54","335583","0.0-12.0-0.0","1250","digit-span","true","0","","null","<div class = centerbox><div class = center-text>2 Digits</p></div>","null","test_intro","","","","","","","","","","","","","","",""
"poldrack-multi-stim-multi-response","55","338988","0.0-12.0-1.0","1250","digit-span","true","0","","[-1]","","","stim","","[""<div class = centerbox><div class = digit-span-text>8</div></div>"",""<div class = centerbox><div class = digit-span-text>2</div></div>""]","[-1]","none","[1000,1000]","2400","0","test","8,2","2","","","","",""
"single-stim-button","56","342973","0.0-12.0-2.0","1250","digit-span","true","0","","3981","","","response","","","","","","3981","1000","test","8,2","2","SubmitButton","3981","2,8","practice","true"
"html-keyboard-response","57","352977","0.0-12.0-3.0","1250","digit-span","true","0","","null","<div class = centerbox><div class = center-block-text><span style=""color:green"">Correct!</span></div></div>","null","feedback","","","","","","","","","","","","","","",""
"html-keyboard-response","58","353982","0.0-12.0-4.0","1250","digit-span","true","0","","null","<div class = centerbox><div class = center-text>2 Digits</p></div>","null","test_intro","","","","","","","","","","","","","","",""
"poldrack-multi-stim-multi-response","59","357388","0.0-12.0-5.0","1250","digit-span","true","0","","[-1]","","","stim","","[""<div class = centerbox><div class = digit-span-text>5</div></div>"",""<div class = centerbox><div class = digit-span-text>6</div></div>""]","[-1]","none","[1000,1000]","2400","0","test","5,6","2","","","","",""
"single-stim-button","60","360313","0.0-12.0-6.0","1250","digit-span","true","0","","2921","","","response","","","","","","2921","1000","test","5,6","2","SubmitButton","2921","6,5","practice","true"
"html-keyboard-response","61","361317","0.0-13.0-0.0","1250","digit-span","true","0","","null","<div class = centerbox><div class = center-text>2 Digits</p></div>","null","test_intro","","","","","","","","","","","","","","",""
"poldrack-multi-stim-multi-response","62","364724","0.0-13.0-1.0","1250","digit-span","true","0","","[-1]","","","stim","","[""<div class = centerbox><div class = digit-span-text>2</div></div>"",""<div class = centerbox><div class = digit-span-text>5</div></div>""]","[-1]","none","[1000,1000]","2400","0","test","2,5","2","","","","",""
"single-stim-button","63","367395","0.0-13.0-2.0","1250","digit-span","true","0","","2668","","","response","","","","","","2668","1000","test","2,5","2","SubmitButton","2668","5,2","reverse","true"
"html-keyboard-response","64","368398","0.0-13.0-3.0","1250","digit-span","true","0","","null","<div class = centerbox><div class = center-text>2 Digits</p></div>","null","test_intro","","","","","","","","","","","","","","",""
"poldrack-multi-stim-multi-response","65","371802","0.0-13.0-4.0","1250","digit-span","true","0","","[-1]","","","stim","","[""<div class = centerbox><div class = digit-span-text>6</div></div>"",""<div class = centerbox><div class = digit-span-text>3</div></div>""]","[-1]","none","[1000,1000]","2400","0","test","6,3","2","","","","",""
"single-stim-button","66","374460","0.0-13.0-5.0","1250","digit-span","true","0","","2655","","","response","","","","","","2655","1000","test","6,3","2","SubmitButton","2655","3,6","reverse","true"
"html-keyboard-response","67","375463","0.0-14.0-0.0","1250","digit-span","true","0","","null","<div class = centerbox><div class = center-text>3 Digits</p></div>","null","test_intro","","","","","","","","","","","","","","",""
"poldrack-multi-stim-multi-response","68","380071","0.0-14.0-1.0","1250","digit-span","true","0","","[-1]","","","stim","","[""<div class = centerbox><div class = digit-span-text>5</div></div>"",""<div class = centerbox><div class = digit-span-text>7</div></div>"",""<div class = centerbox><div class = digit-span-text>4</div></div>""]","[-1]","none","[1000,1000,1000]","3600","0","test","5,7,4","3","","","","",""
"single-stim-button","69","387270","0.0-14.0-2.0","1250","digit-span","true","0","","7195","","","response","","","","","","7195","1000","test","5,7,4","3","SubmitButton","7195","4,7,5","reverse","true"
"html-keyboard-response","70","388273","0.0-14.0-3.0","1250","digit-span","true","0","","null","<div class = centerbox><div class = center-text>3 Digits</p></div>","null","test_intro","","","","","","","","","","","","","","",""
"poldrack-multi-stim-multi-response","71","392879","0.0-14.0-4.0","1250","digit-span","true","0","","[-1]","","","stim","","[""<div class = centerbox><div class = digit-span-text>2</div></div>"",""<div class = centerbox><div class = digit-span-text>5</div></div>"",""<div class = centerbox><div class = digit-span-text>9</div></div>""]","[-1]","none","[1000,1000,1000]","3600","0","test","2,5,9","3","","","","",""
"single-stim-button","72","408452","0.0-14.0-5.0","1250","digit-span","true","0","","15569","","","response","","","","","","15569","1000","test","2,5,9","3","SubmitButton","15569","9,5,2","reverse","true"
"html-keyboard-response","73","409458","0.0-15.0-0.0","1250","digit-span","true","0","","null","<div class = centerbox><div class = center-text>4 Digits</p></div>","null","test_intro","","","","","","","","","","","","","","",""
"poldrack-multi-stim-multi-response","74","415264","0.0-15.0-1.0","1250","digit-span","true","0","","[-1]","","","stim","","[""<div class = centerbox><div class = digit-span-text>7</div></div>"",""<div class = centerbox><div class = digit-span-text>2</div></div>"",""<div class = centerbox><div class = digit-span-text>9</div></div>"",""<div class = centerbox><div class = digit-span-text>6</div></div>""]","[-1]","none","[1000,1000,1000,1000]","4800","0","test","7,2,9,6","4","","","","",""
"single-stim-button","75","426761","0.0-15.0-2.0","1250","digit-span","true","0","","11493","","","response","","","","","","11493","1000","test","7,2,9,6","4","SubmitButton","11493","6,9,2,7","reverse","true"
"html-keyboard-response","76","427764","0.0-15.0-3.0","1250","digit-span","true","0","","null","<div class = centerbox><div class = center-text>4 Digits</p></div>","null","test_intro","","","","","","","","","","","","","","",""
"poldrack-multi-stim-multi-response","77","433570","0.0-15.0-4.0","1250","digit-span","true","0","","[-1]","","","stim","","[""<div class = centerbox><div class = digit-span-text>8</div></div>"",""<div class = centerbox><div class = digit-span-text>4</div></div>"",""<div class = centerbox><div class = digit-span-text>9</div></div>"",""<div class = centerbox><div class = digit-span-text>3</div></div>""]","[-1]","none","[1000,1000,1000,1000]","4800","0","test","8,4,9,3","4","","","","",""
"single-stim-button","78","441713","0.0-15.0-5.0","1250","digit-span","true","0","","8139","","","response","","","","","","8139","1000","test","8,4,9,3","4","SubmitButton","8139","3,9,4,8","reverse","true"
"html-keyboard-response","79","442716","0.0-16.0-0.0","1250","digit-span","true","0","","null","<div class = centerbox><div class = center-text>5 Digits</p></div>","null","test_intro","","","","","","","","","","","","","","",""
"poldrack-multi-stim-multi-response","80","449723","0.0-16.0-1.0","1250","digit-span","true","0","","[-1]","","","stim","","[""<div class = centerbox><div class = digit-span-text>4</div></div>"",""<div class = centerbox><div class = digit-span-text>1</div></div>"",""<div class = centerbox><div class = digit-span-text>3</div></div>"",""<div class = centerbox><div class = digit-span-text>5</div></div>"",""<div class = centerbox><div class = digit-span-text>7</div></div>""]","[-1]","none","[1000,1000,1000,1000,1000]","6000","0","test","4,1,3,5,7","5","","","","",""
"single-stim-button","81","475340","0.0-16.0-2.0","1250","digit-span","true","0","","25612","","","response","","","","","","25612","1000","test","4,1,3,5,7","5","SubmitButton","25612","7,5,3,1,4","reverse","true"
"html-keyboard-response","82","476344","0.0-16.0-3.0","1250","digit-span","true","0","","null","<div class = centerbox><div class = center-text>5 Digits</p></div>","null","test_intro","","","","","","","","","","","","","","",""
"poldrack-multi-stim-multi-response","83","483351","0.0-16.0-4.0","1250","digit-span","true","0","","[-1]","","","stim","","[""<div class = centerbox><div class = digit-span-text>9</div></div>"",""<div class = centerbox><div class = digit-span-text>7</div></div>"",""<div class = centerbox><div class = digit-span-text>8</div></div>"",""<div class = centerbox><div class = digit-span-text>5</div></div>"",""<div class = centerbox><div class = digit-span-text>2</div></div>""]","[-1]","none","[1000,1000,1000,1000,1000]","6000","0","test","9,7,8,5,2","5","","","","",""
"single-stim-button","84","496475","0.0-16.0-5.0","1250","digit-span","true","0","","13120","","","response","","","","","","13120","1000","test","9,7,8,5,2","5","SubmitButton","13120","2,5,8,7,9","reverse","true"
"html-keyboard-response","85","497480","0.0-17.0-0.0","1250","digit-span","true","0","","null","<div class = centerbox><div class = center-text>6 Digits</p></div>","null","test_intro","","","","","","","","","","","","","","",""
"poldrack-multi-stim-multi-response","86","505686","0.0-17.0-1.0","1250","digit-span","true","0","","[-1]","","","stim","","[""<div class = centerbox><div class = digit-span-text>1</div></div>"",""<div class = centerbox><div class = digit-span-text>6</div></div>"",""<div class = centerbox><div class = digit-span-text>5</div></div>"",""<div class = centerbox><div class = digit-span-text>2</div></div>"",""<div class = centerbox><div class = digit-span-text>9</div></div>"",""<div class = centerbox><div class = digit-span-text>8</div></div>""]","[-1]","none","[1000,1000,1000,1000,1000,1000]","7200","0","test","1,6,5,2,9,8","6","","","","",""
"single-stim-button","87","536320","0.0-17.0-2.0","1250","digit-span","true","0","","30631","","","response","","","","","","30631","1000","test","1,6,5,2,9,8","6","SubmitButton","30631","8,9,2,5,6,1","reverse","true"
"html-keyboard-response","88","537324","0.0-17.0-3.0","1250","digit-span","true","0","","null","<div class = centerbox><div class = center-text>6 Digits</p></div>","null","test_intro","","","","","","","","","","","","","","",""
"poldrack-multi-stim-multi-response","89","545532","0.0-17.0-4.0","1250","digit-span","true","0","","[-1]","","","stim","","[""<div class = centerbox><div class = digit-span-text>3</div></div>"",""<div class = centerbox><div class = digit-span-text>6</div></div>"",""<div class = centerbox><div class = digit-span-text>7</div></div>"",""<div class = centerbox><div class = digit-span-text>1</div></div>"",""<div class = centerbox><div class = digit-span-text>9</div></div>"",""<div class = centerbox><div class = digit-span-text>4</div></div>""]","[-1]","none","[1000,1000,1000,1000,1000,1000]","7200","0","test","3,6,7,1,9,4","6","","","","",""
"single-stim-button","90","582740","0.0-17.0-5.0","1250","digit-span","true","0","","37203","","","response","","","","","","37203","1000","test","3,6,7,1,9,4","6","SubmitButton","37203","4,9,1,7,6,3","reverse","true"
"html-keyboard-response","91","583743","0.0-18.0-0.0","1250","digit-span","true","0","","null","<div class = centerbox><div class = center-text>7 Digits</p></div>","null","test_intro","","","","","","","","","","","","","","",""
"poldrack-multi-stim-multi-response","92","593146","0.0-18.0-1.0","1250","digit-span","true","0","","[-1]","","","stim","","[""<div class = centerbox><div class = digit-span-text>8</div></div>"",""<div class = centerbox><div class = digit-span-text>5</div></div>"",""<div class = centerbox><div class = digit-span-text>9</div></div>"",""<div class = centerbox><div class = digit-span-text>2</div></div>"",""<div class = centerbox><div class = digit-span-text>3</div></div>"",""<div class = centerbox><div class = digit-span-text>4</div></div>"",""<div class = centerbox><div class = digit-span-text>2</div></div>""]","[-1]","none","[1000,1000,1000,1000,1000,1000,1000]","8400","0","test","8,5,9,2,3,4,2","7","","","","",""
"single-stim-button","93","612347","0.0-18.0-2.0","1250","digit-span","true","0","","19199","","","response","","","","","","19199","1000","test","8,5,9,2,3,4,2","7","SubmitButton","19199","2,4,3,2,9,5,8","reverse","true"
"html-keyboard-response","94","613350","0.0-18.0-3.0","1250","digit-span","true","0","","null","<div class = centerbox><div class = center-text>7 Digits</p></div>","null","test_intro","","","","","","","","","","","","","","",""
"poldrack-multi-stim-multi-response","95","622756","0.0-18.0-4.0","1250","digit-span","true","0","","[-1]","","","stim","","[""<div class = centerbox><div class = digit-span-text>4</div></div>"",""<div class = centerbox><div class = digit-span-text>5</div></div>"",""<div class = centerbox><div class = digit-span-text>7</div></div>"",""<div class = centerbox><div class = digit-span-text>9</div></div>"",""<div class = centerbox><div class = digit-span-text>2</div></div>"",""<div class = centerbox><div class = digit-span-text>8</div></div>"",""<div class = centerbox><div class = digit-span-text>1</div></div>""]","[-1]","none","[1000,1000,1000,1000,1000,1000,1000]","8400","0","test","4,5,7,9,2,8,1","7","","","","",""
"single-stim-button","96","647579","0.0-18.0-5.0","1250","digit-span","true","0","","24819","","","response","","","","","","24819","1000","test","4,5,7,9,2,8,1","7","SubmitButton","24819","1,8,2,9,7,5,4","reverse","true"
"html-keyboard-response","97","648582","0.0-19.0-0.0","1250","digit-span","true","0","","null","<div class = centerbox><div class = center-text>8 Digits</p></div>","null","test_intro","","","","","","","","","","","","","","",""
"poldrack-multi-stim-multi-response","98","659186","0.0-19.0-1.0","1250","digit-span","true","0","","[-1]","","","stim","","[""<div class = centerbox><div class = digit-span-text>6</div></div>"",""<div class = centerbox><div class = digit-span-text>9</div></div>"",""<div class = centerbox><div class = digit-span-text>1</div></div>"",""<div class = centerbox><div class = digit-span-text>6</div></div>"",""<div class = centerbox><div class = digit-span-text>3</div></div>"",""<div class = centerbox><div class = digit-span-text>2</div></div>"",""<div class = centerbox><div class = digit-span-text>5</div></div>"",""<div class = centerbox><div class = digit-span-text>8</div></div>""]","[-1]","none","[1000,1000,1000,1000,1000,1000,1000,1000]","9600","0","test","6,9,1,6,3,2,5,8","8","","","","",""
"single-stim-button","99","690256","0.0-19.0-2.0","1250","digit-span","true","0","","31067","","","response","","","","","","31067","1000","test","6,9,1,6,3,2,5,8","8","SubmitButton","31067","8,5,2,3,6,1,9,6","reverse","true"
"html-keyboard-response","100","691261","0.0-19.0-3.0","1250","digit-span","true","0","","null","<div class = centerbox><div class = center-text>8 Digits</p></div>","null","test_intro","","","","","","","","","","","","","","",""
"poldrack-multi-stim-multi-response","101","701868","0.0-19.0-4.0","1250","digit-span","true","0","","[-1]","","","stim","","[""<div class = centerbox><div class = digit-span-text>3</div></div>"",""<div class = centerbox><div class = digit-span-text>1</div></div>"",""<div class = centerbox><div class = digit-span-text>7</div></div>"",""<div class = centerbox><div class = digit-span-text>9</div></div>"",""<div class = centerbox><div class = digit-span-text>5</div></div>"",""<div class = centerbox><div class = digit-span-text>4</div></div>"",""<div class = centerbox><div class = digit-span-text>8</div></div>"",""<div class = centerbox><div class = digit-span-text>2</div></div>""]","[-1]","none","[1000,1000,1000,1000,1000,1000,1000,1000]","9600","0","test","3,1,7,9,5,4,8,2","8","","","","",""
"single-stim-button","102","720677","0.0-19.0-5.0","1250","digit-span","true","0","","18806","","","response","","","","","","18806","1000","test","3,1,7,9,5,4,8,2","8","SubmitButton","18806","2,8,4,5,9,7,1,3","reverse","true"
"image-keyboard-response","103","724139","0.0-20.0","1250","digit-span","true","0","","3459","img/trophy2.jpeg","13","end","","","","","","","","","","","","","","",""
