"trial_type","trial_index","time_elapsed","internal_node_id","subject","exp_id","full_screen","focus_shifts","success","rt","stimulus","key_press","trial_id","view_history","stimuli","key_presses","possible_responses","stim_durations","block_duration","timing_post_trial","exp_stage","sequence","num_digits","mouse_click","stim_duration","response","condition","correct"
"pavlovia","0","2353","0.0-0.0","100502","digit-span","true","0","","","","","","","","","","","","","","","","","","","",""
"fullscreen","1","10249","0.0-1.0","100502","digit-span","true","0","true","","","","","","","","","","","","","","","","","","",""
"html-keyboard-response","2","128385","0.0-2.0-0.0","100502","digit-span","true","0","","118131.29999999702","<div class = centerbox><p class = center-block-text>Welcome to the number game! It will take less than 5 minutes. Press <strong>""Enter/Return""</strong> to begin.</p></div>","13","instruction","","","","","","","","","","","","","","",""
"instructions","3","146309","0.0-2.0-1.0","100502","digit-span","true","0","","17923.5","","","instruction","[{""page_index"":0,""viewing_time"":17923.29999999702}]","","","","","","","","","","","","","",""
"instructions","4","151261","0.0-2.0-2.0","100502","digit-span","true","0","","3948.699999988079","","","instruction","[{""page_index"":0,""viewing_time"":3948.5}]","","","","","","","","","","","","","",""
"html-keyboard-response","5","153270","0.0-3.0-0.0","100502","digit-span","true","0","","null","<div class = centerbox><div class = center-text>2 Digits</p></div>","null","test_intro","","","","","","","","","","","","","","",""
"poldrack-multi-stim-multi-response","6","156675","0.0-3.0-1.0","100502","digit-span","true","0","","[-1]","","","stim","","[""<div class = centerbox><div class = digit-span-text>2</div></div>"",""<div class = centerbox><div class = digit-span-text>9</div></div>""]","[-1]","none","[1000,1000]","2400","0","test","2,9","2","","","","",""
"single-stim-button","7","162195","0.0-3.0-2.0","100502","digit-span","true","0","","5517","","","response","","","","","","5517","1000","test","2,9","2","SubmitButton","5517","2,9","forward","true"
"html-keyboard-response","8","163200","0.0-3.0-3.0","100502","digit-span","true","0","","null","<div class = centerbox><div class = center-text>2 Digits</p></div>","null","test_intro","","","","","","","","","","","","","","",""
"poldrack-multi-stim-multi-response","9","166608","0.0-3.0-4.0","100502","digit-span","true","0","","[-1]","","","stim","","[""<div class = centerbox><div class = digit-span-text>4</div></div>"",""<div class = centerbox><div class = digit-span-text>6</div></div>""]","[-1]","none","[1000,1000]","2400","0","test","4,6","2","","","","",""
"single-stim-button","10","168917","0.0-3.0-5.0","100502","digit-span","true","0","","2308","","","response","","","","","","2308","1000","test","4,6","2","SubmitButton","2308","4,6","forward","true"
"html-keyboard-response","11","169922","0.0-4.0-0.0","100502","digit-span","true","0","","null","<div class = centerbox><div class = center-text>3 Digits</p></div>","null","test_intro","","","","","","","","","","","","","","",""
"poldrack-multi-stim-multi-response","12","174531","0.0-4.0-1.0","100502","digit-span","true","0","","[-1]","","","stim","","[""<div class = centerbox><div class = digit-span-text>3</div></div>"",""<div class = centerbox><div class = digit-span-text>8</div></div>"",""<div class = centerbox><div class = digit-span-text>6</div></div>""]","[-1]","none","[1000,1000,1000]","3600","0","test","3,8,6","3","","","","",""
"single-stim-button","13","177029","0.0-4.0-2.0","100502","digit-span","true","0","","2497","","","response","","","","","","2497","1000","test","3,8,6","3","SubmitButton","2497","3,8,6","forward","true"
"html-keyboard-response","14","178032","0.0-4.0-3.0","100502","digit-span","true","0","","null","<div class = centerbox><div class = center-text>3 Digits</p></div>","null","test_intro","","","","","","","","","","","","","","",""
"poldrack-multi-stim-multi-response","15","182641","0.0-4.0-4.0","100502","digit-span","true","0","","[-1]","","","stim","","[""<div class = centerbox><div class = digit-span-text>6</div></div>"",""<div class = centerbox><div class = digit-span-text>1</div></div>"",""<div class = centerbox><div class = digit-span-text>2</div></div>""]","[-1]","none","[1000,1000,1000]","3600","0","test","6,1,2","3","","","","",""
"single-stim-button","16","185140","0.0-4.0-5.0","100502","digit-span","true","0","","2498","","","response","","","","","","2498","1000","test","6,1,2","3","SubmitButton","2498","6,1,2","forward","true"
"html-keyboard-response","17","186142","0.0-5.0-0.0","100502","digit-span","true","0","","null","<div class = centerbox><div class = center-text>4 Digits</p></div>","null","test_intro","","","","","","","","","","","","","","",""
"poldrack-multi-stim-multi-response","18","191953","0.0-5.0-1.0","100502","digit-span","true","0","","[-1]","","","stim","","[""<div class = centerbox><div class = digit-span-text>3</div></div>"",""<div class = centerbox><div class = digit-span-text>4</div></div>"",""<div class = centerbox><div class = digit-span-text>1</div></div>"",""<div class = centerbox><div class = digit-span-text>7</div></div>""]","[-1]","none","[1000,1000,1000,1000]","4800","0","test","3,4,1,7","4","","","","",""
"single-stim-button","19","195193","0.0-5.0-2.0","100502","digit-span","true","0","","3239","","","response","","","","","","3239","1000","test","3,4,1,7","4","SubmitButton","3239","3,4,1,7","forward","true"
"html-keyboard-response","20","196196","0.0-5.0-3.0","100502","digit-span","true","0","","null","<div class = centerbox><div class = center-text>4 Digits</p></div>","null","test_intro","","","","","","","","","","","","","","",""
"poldrack-multi-stim-multi-response","21","202001","0.0-5.0-4.0","100502","digit-span","true","0","","[-1]","","","stim","","[""<div class = centerbox><div class = digit-span-text>6</div></div>"",""<div class = centerbox><div class = digit-span-text>1</div></div>"",""<div class = centerbox><div class = digit-span-text>5</div></div>"",""<div class = centerbox><div class = digit-span-text>8</div></div>""]","[-1]","none","[1000,1000,1000,1000]","4800","0","test","6,1,5,8","4","","","","",""
"single-stim-button","22","204994","0.0-5.0-5.0","100502","digit-span","true","0","","2991","","","response","","","","","","2991","1000","test","6,1,5,8","4","SubmitButton","2991","6,1,5,8","forward","true"
"html-keyboard-response","23","205997","0.0-6.0-0.0","100502","digit-span","true","0","","null","<div class = centerbox><div class = center-text>5 Digits</p></div>","null","test_intro","","","","","","","","","","","","","","",""
"poldrack-multi-stim-multi-response","24","213002","0.0-6.0-1.0","100502","digit-span","true","0","","[-1]","","","stim","","[""<div class = centerbox><div class = digit-span-text>8</div></div>"",""<div class = centerbox><div class = digit-span-text>4</div></div>"",""<div class = centerbox><div class = digit-span-text>2</div></div>"",""<div class = centerbox><div class = digit-span-text>3</div></div>"",""<div class = centerbox><div class = digit-span-text>9</div></div>""]","[-1]","none","[1000,1000,1000,1000,1000]","6000","0","test","8,4,2,3,9","5","","","","",""
"single-stim-button","25","216348","0.0-6.0-2.0","100502","digit-span","true","0","","3345","","","response","","","","","","3345","1000","test","8,4,2,3,9","5","SubmitButton","3345","8,4,2,3,9","forward","true"
"html-keyboard-response","26","217349","0.0-6.0-3.0","100502","digit-span","true","0","","null","<div class = centerbox><div class = center-text>5 Digits</p></div>","null","test_intro","","","","","","","","","","","","","","",""
"poldrack-multi-stim-multi-response","27","224353","0.0-6.0-4.0","100502","digit-span","true","0","","[-1]","","","stim","","[""<div class = centerbox><div class = digit-span-text>5</div></div>"",""<div class = centerbox><div class = digit-span-text>2</div></div>"",""<div class = centerbox><div class = digit-span-text>1</div></div>"",""<div class = centerbox><div class = digit-span-text>8</div></div>"",""<div class = centerbox><div class = digit-span-text>6</div></div>""]","[-1]","none","[1000,1000,1000,1000,1000]","6000","0","test","5,2,1,8,6","5","","","","",""
"single-stim-button","28","227788","0.0-6.0-5.0","100502","digit-span","true","0","","3434","","","response","","","","","","3434","1000","test","5,2,1,8,6","5","SubmitButton","3434","5,2,1,8,6","forward","true"
"html-keyboard-response","29","228794","0.0-7.0-0.0","100502","digit-span","true","0","","null","<div class = centerbox><div class = center-text>6 Digits</p></div>","null","test_intro","","","","","","","","","","","","","","",""
"poldrack-multi-stim-multi-response","30","237000","0.0-7.0-1.0","100502","digit-span","true","0","","[-1]","","","stim","","[""<div class = centerbox><div class = digit-span-text>3</div></div>"",""<div class = centerbox><div class = digit-span-text>8</div></div>"",""<div class = centerbox><div class = digit-span-text>9</div></div>"",""<div class = centerbox><div class = digit-span-text>1</div></div>"",""<div class = centerbox><div class = digit-span-text>7</div></div>"",""<div class = centerbox><div class = digit-span-text>4</div></div>""]","[-1]","none","[1000,1000,1000,1000,1000,1000]","7200","0","test","3,8,9,1,7,4","6","","","","",""
"single-stim-button","31","241193","0.0-7.0-2.0","100502","digit-span","true","0","","4192","","","response","","","","","","4192","1000","test","3,8,9,1,7,4","6","SubmitButton","4192","3,8,9,1,7,4","forward","true"
"html-keyboard-response","32","242196","0.0-7.0-3.0","100502","digit-span","true","0","","null","<div class = centerbox><div class = center-text>6 Digits</p></div>","null","test_intro","","","","","","","","","","","","","","",""
"poldrack-multi-stim-multi-response","33","250402","0.0-7.0-4.0","100502","digit-span","true","0","","[-1]","","","stim","","[""<div class = centerbox><div class = digit-span-text>7</div></div>"",""<div class = centerbox><div class = digit-span-text>9</div></div>"",""<div class = centerbox><div class = digit-span-text>6</div></div>"",""<div class = centerbox><div class = digit-span-text>4</div></div>"",""<div class = centerbox><div class = digit-span-text>8</div></div>"",""<div class = centerbox><div class = digit-span-text>3</div></div>""]","[-1]","none","[1000,1000,1000,1000,1000,1000]","7200","0","test","7,9,6,4,8,3","6","","","","",""
"single-stim-button","34","254760","0.0-7.0-5.0","100502","digit-span","true","0","","4357","","","response","","","","","","4357","1000","test","7,9,6,4,8,3","6","SubmitButton","4357","7,9,6,4,8,3","forward","true"
"html-keyboard-response","35","255763","0.0-8.0-0.0","100502","digit-span","true","0","","null","<div class = centerbox><div class = center-text>7 Digits</p></div>","null","test_intro","","","","","","","","","","","","","","",""
"poldrack-multi-stim-multi-response","36","265173","0.0-8.0-1.0","100502","digit-span","true","0","","[-1]","","","stim","","[""<div class = centerbox><div class = digit-span-text>5</div></div>"",""<div class = centerbox><div class = digit-span-text>1</div></div>"",""<div class = centerbox><div class = digit-span-text>7</div></div>"",""<div class = centerbox><div class = digit-span-text>4</div></div>"",""<div class = centerbox><div class = digit-span-text>2</div></div>"",""<div class = centerbox><div class = digit-span-text>3</div></div>"",""<div class = centerbox><div class = digit-span-text>8</div></div>""]","[-1]","none","[1000,1000,1000,1000,1000,1000,1000]","8400","0","test","5,1,7,4,2,3,8","7","","","","",""
"single-stim-button","37","269648","0.0-8.0-2.0","100502","digit-span","true","0","","4475","","","response","","","","","","4475","1000","test","5,1,7,4,2,3,8","7","SubmitButton","4475","5,1,7,4,2,3,8","forward","true"
"html-keyboard-response","38","270653","0.0-8.0-3.0","100502","digit-span","true","0","","null","<div class = centerbox><div class = center-text>7 Digits</p></div>","null","test_intro","","","","","","","","","","","","","","",""
"poldrack-multi-stim-multi-response","39","280063","0.0-8.0-4.0","100502","digit-span","true","0","","[-1]","","","stim","","[""<div class = centerbox><div class = digit-span-text>9</div></div>"",""<div class = centerbox><div class = digit-span-text>8</div></div>"",""<div class = centerbox><div class = digit-span-text>5</div></div>"",""<div class = centerbox><div class = digit-span-text>2</div></div>"",""<div class = centerbox><div class = digit-span-text>1</div></div>"",""<div class = centerbox><div class = digit-span-text>6</div></div>"",""<div class = centerbox><div class = digit-span-text>3</div></div>""]","[-1]","none","[1000,1000,1000,1000,1000,1000,1000]","8400","0","test","9,8,5,2,1,6,3","7","","","","",""
"single-stim-button","40","284898","0.0-8.0-5.0","100502","digit-span","true","0","","4835","","","response","","","","","","4835","1000","test","9,8,5,2,1,6,3","7","SubmitButton","4835","9,8,5,2,1,6,3","forward","true"
"html-keyboard-response","41","285903","0.0-9.0-0.0","100502","digit-span","true","0","","null","<div class = centerbox><div class = center-text>8 Digits</p></div>","null","test_intro","","","","","","","","","","","","","","",""
"poldrack-multi-stim-multi-response","42","296509","0.0-9.0-1.0","100502","digit-span","true","0","","[-1]","","","stim","","[""<div class = centerbox><div class = digit-span-text>1</div></div>"",""<div class = centerbox><div class = digit-span-text>6</div></div>"",""<div class = centerbox><div class = digit-span-text>4</div></div>"",""<div class = centerbox><div class = digit-span-text>5</div></div>"",""<div class = centerbox><div class = digit-span-text>9</div></div>"",""<div class = centerbox><div class = digit-span-text>7</div></div>"",""<div class = centerbox><div class = digit-span-text>6</div></div>"",""<div class = centerbox><div class = digit-span-text>3</div></div>""]","[-1]","none","[1000,1000,1000,1000,1000,1000,1000,1000]","9600","0","test","1,6,4,5,9,7,6,3","8","","","","",""
"single-stim-button","43","301510","0.0-9.0-2.0","100502","digit-span","true","0","","5000","","","response","","","","","","5000","1000","test","1,6,4,5,9,7,6,3","8","SubmitButton","5000","1,6,4,5,9,7,6,3","forward","true"
"html-keyboard-response","44","302511","0.0-9.0-3.0","100502","digit-span","true","0","","null","<div class = centerbox><div class = center-text>8 Digits</p></div>","null","test_intro","","","","","","","","","","","","","","",""
"poldrack-multi-stim-multi-response","45","313117","0.0-9.0-4.0","100502","digit-span","true","0","","[-1]","","","stim","","[""<div class = centerbox><div class = digit-span-text>2</div></div>"",""<div class = centerbox><div class = digit-span-text>9</div></div>"",""<div class = centerbox><div class = digit-span-text>7</div></div>"",""<div class = centerbox><div class = digit-span-text>6</div></div>"",""<div class = centerbox><div class = digit-span-text>3</div></div>"",""<div class = centerbox><div class = digit-span-text>1</div></div>"",""<div class = centerbox><div class = digit-span-text>5</div></div>"",""<div class = centerbox><div class = digit-span-text>4</div></div>""]","[-1]","none","[1000,1000,1000,1000,1000,1000,1000,1000]","9600","0","test","2,9,7,6,3,1,5,4","8","","","","",""
"single-stim-button","46","324693","0.0-9.0-5.0","100502","digit-span","true","0","","11574","","","response","","","","","","11574","1000","test","2,9,7,6,3,1,5,4","8","SubmitButton","11574","2,1,7,6,3,1,9,4","forward","false"
"html-keyboard-response","47","325697","0.0-10.0-0.0","100502","digit-span","true","0","","null","<div class = centerbox><div class = center-text>9 Digits</p></div>","null","test_intro","","","","","","","","","","","","","","",""
"poldrack-multi-stim-multi-response","48","337504","0.0-10.0-1.0","100502","digit-span","true","0","","[-1]","","","stim","","[""<div class = centerbox><div class = digit-span-text>5</div></div>"",""<div class = centerbox><div class = digit-span-text>3</div></div>"",""<div class = centerbox><div class = digit-span-text>8</div></div>"",""<div class = centerbox><div class = digit-span-text>7</div></div>"",""<div class = centerbox><div class = digit-span-text>1</div></div>"",""<div class = centerbox><div class = digit-span-text>2</div></div>"",""<div class = centerbox><div class = digit-span-text>4</div></div>"",""<div class = centerbox><div class = digit-span-text>6</div></div>"",""<div class = centerbox><div class = digit-span-text>9</div></div>""]","[-1]","none","[1000,1000,1000,1000,1000,1000,1000,1000,1000]","10800","0","test","5,3,8,7,1,2,4,6,9","9","","","","",""
"single-stim-button","49","342539","0.0-10.0-2.0","100502","digit-span","true","0","","5033","","","response","","","","","","5033","1000","test","5,3,8,7,1,2,4,6,9","9","SubmitButton","5033","5,3,8,7,1,2,4,6,9","forward","true"
"html-keyboard-response","50","343542","0.0-10.0-3.0","100502","digit-span","true","0","","null","<div class = centerbox><div class = center-text>9 Digits</p></div>","null","test_intro","","","","","","","","","","","","","","",""
"poldrack-multi-stim-multi-response","51","355349","0.0-10.0-4.0","100502","digit-span","true","0","","[-1]","","","stim","","[""<div class = centerbox><div class = digit-span-text>4</div></div>"",""<div class = centerbox><div class = digit-span-text>2</div></div>"",""<div class = centerbox><div class = digit-span-text>6</div></div>"",""<div class = centerbox><div class = digit-span-text>9</div></div>"",""<div class = centerbox><div class = digit-span-text>1</div></div>"",""<div class = centerbox><div class = digit-span-text>7</div></div>"",""<div class = centerbox><div class = digit-span-text>8</div></div>"",""<div class = centerbox><div class = digit-span-text>3</div></div>"",""<div class = centerbox><div class = digit-span-text>5</div></div>""]","[-1]","none","[1000,1000,1000,1000,1000,1000,1000,1000,1000]","10800","0","test","4,2,6,9,1,7,8,3,5","9","","","","",""
"single-stim-button","52","360803","0.0-10.0-5.0","100502","digit-span","true","0","","5454","","","response","","","","","","5454","1000","test","4,2,6,9,1,7,8,3,5","9","SubmitButton","5454","4,2,6,8,1,7,3,6,9","forward","false"
"html-keyboard-response","53","391703","0.0-11.0","100502","digit-span","true","0","","30898.29999999702","<div class = centerbox><p class = block-text>Now, you will see some numbers, but this time you will enter them <strong>backward</strong>.<br><br>For example, you see <strong>“1—5”</strong>, and you will enter <strong>“5—1”</strong>.<br><br><br>Press <strong>""Enter/Return""</strong> to begin.</p></div>","13","start_reverse","","","","","","","","","","","","","","",""
"html-keyboard-response","54","392705","0.0-12.0-0.0","100502","digit-span","true","0","","null","<div class = centerbox><div class = center-text>2 Digits</p></div>","null","test_intro","","","","","","","","","","","","","","",""
"poldrack-multi-stim-multi-response","55","396113","0.0-12.0-1.0","100502","digit-span","true","0","","[-1]","","","stim","","[""<div class = centerbox><div class = digit-span-text>8</div></div>"",""<div class = centerbox><div class = digit-span-text>2</div></div>""]","[-1]","none","[1000,1000]","2400","0","test","8,2","2","","","","",""
"single-stim-button","56","397823","0.0-12.0-2.0","100502","digit-span","true","0","","1708","","","response","","","","","","1708","1000","test","8,2","2","SubmitButton","1708","2,8","practice","true"
"html-keyboard-response","57","407824","0.0-12.0-3.0","100502","digit-span","true","0","","null","<div class = centerbox><div class = center-block-text><span style=""color:green"">Correct!</span></div></div>","null","feedback","","","","","","","","","","","","","","",""
"html-keyboard-response","58","408826","0.0-12.0-4.0","100502","digit-span","true","0","","null","<div class = centerbox><div class = center-text>2 Digits</p></div>","null","test_intro","","","","","","","","","","","","","","",""
"poldrack-multi-stim-multi-response","59","412234","0.0-12.0-5.0","100502","digit-span","true","0","","[-1]","","","stim","","[""<div class = centerbox><div class = digit-span-text>5</div></div>"",""<div class = centerbox><div class = digit-span-text>6</div></div>""]","[-1]","none","[1000,1000]","2400","0","test","5,6","2","","","","",""
"single-stim-button","60","414508","0.0-12.0-6.0","100502","digit-span","true","0","","2273","","","response","","","","","","2273","1000","test","5,6","2","SubmitButton","2273","6,5","practice","true"
"html-keyboard-response","61","415514","0.0-13.0-0.0","100502","digit-span","true","0","","null","<div class = centerbox><div class = center-text>2 Digits</p></div>","null","test_intro","","","","","","","","","","","","","","",""
"poldrack-multi-stim-multi-response","62","418921","0.0-13.0-1.0","100502","digit-span","true","0","","[-1]","","","stim","","[""<div class = centerbox><div class = digit-span-text>2</div></div>"",""<div class = centerbox><div class = digit-span-text>5</div></div>""]","[-1]","none","[1000,1000]","2400","0","test","2,5","2","","","","",""
"single-stim-button","63","438545","0.0-13.0-2.0","100502","digit-span","true","0","","19623","","","response","","","","","","19623","1000","test","2,5","2","SubmitButton","19623","5,2","reverse","true"
"html-keyboard-response","64","439547","0.0-13.0-3.0","100502","digit-span","true","0","","null","<div class = centerbox><div class = center-text>2 Digits</p></div>","null","test_intro","","","","","","","","","","","","","","",""
"poldrack-multi-stim-multi-response","65","442955","0.0-13.0-4.0","100502","digit-span","true","0","","[-1]","","","stim","","[""<div class = centerbox><div class = digit-span-text>6</div></div>"",""<div class = centerbox><div class = digit-span-text>3</div></div>""]","[-1]","none","[1000,1000]","2400","0","test","6,3","2","","","","",""
"single-stim-button","66","445501","0.0-13.0-5.0","100502","digit-span","true","0","","2546","","","response","","","","","","2546","1000","test","6,3","2","SubmitButton","2546","3,6","reverse","true"
"html-keyboard-response","67","446507","0.0-14.0-0.0","100502","digit-span","true","0","","null","<div class = centerbox><div class = center-text>3 Digits</p></div>","null","test_intro","","","","","","","","","","","","","","",""
"poldrack-multi-stim-multi-response","68","451116","0.0-14.0-1.0","100502","digit-span","true","0","","[-1]","","","stim","","[""<div class = centerbox><div class = digit-span-text>5</div></div>"",""<div class = centerbox><div class = digit-span-text>7</div></div>"",""<div class = centerbox><div class = digit-span-text>4</div></div>""]","[-1]","none","[1000,1000,1000]","3600","0","test","5,7,4","3","","","","",""
"single-stim-button","69","453262","0.0-14.0-2.0","100502","digit-span","true","0","","2144","","","response","","","","","","2144","1000","test","5,7,4","3","SubmitButton","2144","4,7,5","reverse","true"
"html-keyboard-response","70","454263","0.0-14.0-3.0","100502","digit-span","true","0","","null","<div class = centerbox><div class = center-text>3 Digits</p></div>","null","test_intro","","","","","","","","","","","","","","",""
"poldrack-multi-stim-multi-response","71","458872","0.0-14.0-4.0","100502","digit-span","true","0","","[-1]","","","stim","","[""<div class = centerbox><div class = digit-span-text>2</div></div>"",""<div class = centerbox><div class = digit-span-text>5</div></div>"",""<div class = centerbox><div class = digit-span-text>9</div></div>""]","[-1]","none","[1000,1000,1000]","3600","0","test","2,5,9","3","","","","",""
"single-stim-button","72","461420","0.0-14.0-5.0","100502","digit-span","true","0","","2547","","","response","","","","","","2547","1000","test","2,5,9","3","SubmitButton","2547","9,5,2","reverse","true"
"html-keyboard-response","73","462425","0.0-15.0-0.0","100502","digit-span","true","0","","null","<div class = centerbox><div class = center-text>4 Digits</p></div>","null","test_intro","","","","","","","","","","","","","","",""
"poldrack-multi-stim-multi-response","74","468236","0.0-15.0-1.0","100502","digit-span","true","0","","[-1]","","","stim","","[""<div class = centerbox><div class = digit-span-text>7</div></div>"",""<div class = centerbox><div class = digit-span-text>2</div></div>"",""<div class = centerbox><div class = digit-span-text>9</div></div>"",""<div class = centerbox><div class = digit-span-text>6</div></div>""]","[-1]","none","[1000,1000,1000,1000]","4800","0","test","7,2,9,6","4","","","","",""
"single-stim-button","75","471238","0.0-15.0-2.0","100502","digit-span","true","0","","3002","","","response","","","","","","3002","1000","test","7,2,9,6","4","SubmitButton","3002","6,9,2,7","reverse","true"
"html-keyboard-response","76","472241","0.0-15.0-3.0","100502","digit-span","true","0","","null","<div class = centerbox><div class = center-text>4 Digits</p></div>","null","test_intro","","","","","","","","","","","","","","",""
"poldrack-multi-stim-multi-response","77","478052","0.0-15.0-4.0","100502","digit-span","true","0","","[-1]","","","stim","","[""<div class = centerbox><div class = digit-span-text>8</div></div>"",""<div class = centerbox><div class = digit-span-text>4</div></div>"",""<div class = centerbox><div class = digit-span-text>9</div></div>"",""<div class = centerbox><div class = digit-span-text>3</div></div>""]","[-1]","none","[1000,1000,1000,1000]","4800","0","test","8,4,9,3","4","","","","",""
"single-stim-button","78","481089","0.0-15.0-5.0","100502","digit-span","true","0","","3035","","","response","","","","","","3035","1000","test","8,4,9,3","4","SubmitButton","3035","3,9,4,8","reverse","true"
"html-keyboard-response","79","482093","0.0-16.0-0.0","100502","digit-span","true","0","","null","<div class = centerbox><div class = center-text>5 Digits</p></div>","null","test_intro","","","","","","","","","","","","","","",""
"poldrack-multi-stim-multi-response","80","489099","0.0-16.0-1.0","100502","digit-span","true","0","","[-1]","","","stim","","[""<div class = centerbox><div class = digit-span-text>4</div></div>"",""<div class = centerbox><div class = digit-span-text>1</div></div>"",""<div class = centerbox><div class = digit-span-text>3</div></div>"",""<div class = centerbox><div class = digit-span-text>5</div></div>"",""<div class = centerbox><div class = digit-span-text>7</div></div>""]","[-1]","none","[1000,1000,1000,1000,1000]","6000","0","test","4,1,3,5,7","5","","","","",""
"single-stim-button","81","492720","0.0-16.0-2.0","100502","digit-span","true","0","","3620","","","response","","","","","","3620","1000","test","4,1,3,5,7","5","SubmitButton","3620","7,5,3,1,4","reverse","true"
"html-keyboard-response","82","493725","0.0-16.0-3.0","100502","digit-span","true","0","","null","<div class = centerbox><div class = center-text>5 Digits</p></div>","null","test_intro","","","","","","","","","","","","","","",""
"poldrack-multi-stim-multi-response","83","500733","0.0-16.0-4.0","100502","digit-span","true","0","","[-1]","","","stim","","[""<div class = centerbox><div class = digit-span-text>9</div></div>"",""<div class = centerbox><div class = digit-span-text>7</div></div>"",""<div class = centerbox><div class = digit-span-text>8</div></div>"",""<div class = centerbox><div class = digit-span-text>5</div></div>"",""<div class = centerbox><div class = digit-span-text>2</div></div>""]","[-1]","none","[1000,1000,1000,1000,1000]","6000","0","test","9,7,8,5,2","5","","","","",""
"single-stim-button","84","504753","0.0-16.0-5.0","100502","digit-span","true","0","","4019","","","response","","","","","","4019","1000","test","9,7,8,5,2","5","SubmitButton","4019","2,5,9,7,8","reverse","false"
"html-keyboard-response","85","505757","0.0-17.0-0.0","100502","digit-span","true","0","","null","<div class = centerbox><div class = center-text>6 Digits</p></div>","null","test_intro","","","","","","","","","","","","","","",""
"poldrack-multi-stim-multi-response","86","513963","0.0-17.0-1.0","100502","digit-span","true","0","","[-1]","","","stim","","[""<div class = centerbox><div class = digit-span-text>1</div></div>"",""<div class = centerbox><div class = digit-span-text>6</div></div>"",""<div class = centerbox><div class = digit-span-text>5</div></div>"",""<div class = centerbox><div class = digit-span-text>2</div></div>"",""<div class = centerbox><div class = digit-span-text>9</div></div>"",""<div class = centerbox><div class = digit-span-text>8</div></div>""]","[-1]","none","[1000,1000,1000,1000,1000,1000]","7200","0","test","1,6,5,2,9,8","6","","","","",""
"single-stim-button","87","517339","0.0-17.0-2.0","100502","digit-span","true","0","","3375","","","response","","","","","","3375","1000","test","1,6,5,2,9,8","6","SubmitButton","3375","8,9,1,6,5,2","reverse","false"
"html-keyboard-response","88","518340","0.0-17.0-3.0","100502","digit-span","true","0","","null","<div class = centerbox><div class = center-text>6 Digits</p></div>","null","test_intro","","","","","","","","","","","","","","",""
"poldrack-multi-stim-multi-response","89","526548","0.0-17.0-4.0","100502","digit-span","true","0","","[-1]","","","stim","","[""<div class = centerbox><div class = digit-span-text>3</div></div>"",""<div class = centerbox><div class = digit-span-text>6</div></div>"",""<div class = centerbox><div class = digit-span-text>7</div></div>"",""<div class = centerbox><div class = digit-span-text>1</div></div>"",""<div class = centerbox><div class = digit-span-text>9</div></div>"",""<div class = centerbox><div class = digit-span-text>4</div></div>""]","[-1]","none","[1000,1000,1000,1000,1000,1000]","7200","0","test","3,6,7,1,9,4","6","","","","",""
"single-stim-button","90","530542","0.0-17.0-5.0","100502","digit-span","true","0","","3993","","","response","","","","","","3993","1000","test","3,6,7,1,9,4","6","SubmitButton","3993","4,9,1,7,6,3","reverse","true"
"html-keyboard-response","91","531546","0.0-18.0-0.0","100502","digit-span","true","0","","null","<div class = centerbox><div class = center-text>7 Digits</p></div>","null","test_intro","","","","","","","","","","","","","","",""
"poldrack-multi-stim-multi-response","92","540957","0.0-18.0-1.0","100502","digit-span","true","0","","[-1]","","","stim","","[""<div class = centerbox><div class = digit-span-text>8</div></div>"",""<div class = centerbox><div class = digit-span-text>5</div></div>"",""<div class = centerbox><div class = digit-span-text>9</div></div>"",""<div class = centerbox><div class = digit-span-text>2</div></div>"",""<div class = centerbox><div class = digit-span-text>3</div></div>"",""<div class = centerbox><div class = digit-span-text>4</div></div>"",""<div class = centerbox><div class = digit-span-text>2</div></div>""]","[-1]","none","[1000,1000,1000,1000,1000,1000,1000]","8400","0","test","8,5,9,2,3,4,2","7","","","","",""
"single-stim-button","93","546554","0.0-18.0-2.0","100502","digit-span","true","0","","5596","","","response","","","","","","5596","1000","test","8,5,9,2,3,4,2","7","SubmitButton","5596","2,4,3,2,7,6,9","reverse","false"
"html-keyboard-response","94","547557","0.0-18.0-3.0","100502","digit-span","true","0","","null","<div class = centerbox><div class = center-text>7 Digits</p></div>","null","test_intro","","","","","","","","","","","","","","",""
"poldrack-multi-stim-multi-response","95","556967","0.0-18.0-4.0","100502","digit-span","true","0","","[-1]","","","stim","","[""<div class = centerbox><div class = digit-span-text>4</div></div>"",""<div class = centerbox><div class = digit-span-text>5</div></div>"",""<div class = centerbox><div class = digit-span-text>7</div></div>"",""<div class = centerbox><div class = digit-span-text>9</div></div>"",""<div class = centerbox><div class = digit-span-text>2</div></div>"",""<div class = centerbox><div class = digit-span-text>8</div></div>"",""<div class = centerbox><div class = digit-span-text>1</div></div>""]","[-1]","none","[1000,1000,1000,1000,1000,1000,1000]","8400","0","test","4,5,7,9,2,8,1","7","","","","",""
"single-stim-button","96","561231","0.0-18.0-5.0","100502","digit-span","true","0","","4263","","","response","","","","","","4263","1000","test","4,5,7,9,2,8,1","7","SubmitButton","4263","1,8,9,6,4,2","reverse","false"
"image-keyboard-response","97","563450","0.0-20.0","100502","digit-span","true","0","","2216.800000011921","img/trophy2.jpeg","13","end","","","","","","","","","","","","","","",""
