"trial_type","trial_index","time_elapsed","internal_node_id","subject","exp_id","full_screen","focus_shifts","success","rt","stimulus","key_press","trial_id","view_history","stimuli","key_presses","possible_responses","stim_durations","block_duration","timing_post_trial","exp_stage","sequence","num_digits","mouse_click","stim_duration","response","condition","correct"
"pavlovia","0","1896","0.0-0.0","1106","digit-span","true","0","","","","","","","","","","","","","","","","","","","",""
"fullscreen","1","11587","0.0-1.0","1106","digit-span","true","0","true","","","","","","","","","","","","","","","","","","",""
"html-keyboard-response","2","18223","0.0-2.0-0.0","1106","digit-span","true","0","","6634.700000047684","<div class = centerbox><p class = center-block-text>Welcome to the number game! It will take less than 5 minutes. Press <strong>""Enter/Return""</strong> to begin.</p></div>","13","instruction","","","","","","","","","","","","","","",""
"instructions","3","27676","0.0-2.0-1.0","1106","digit-span","true","0","","9452.799999952316","","","instruction","[{""page_index"":0,""viewing_time"":9452.5}]","","","","","","","","","","","","","",""
"instructions","4","47516","0.0-2.0-2.0","1106","digit-span","true","0","","18838.5","","","instruction","[{""page_index"":0,""viewing_time"":18838.199999809265}]","","","","","","","","","","","","","",""
"html-keyboard-response","5","49520","0.0-3.0-0.0","1106","digit-span","true","0","","null","<div class = centerbox><div class = center-text>2 Digits</p></div>","null","test_intro","","","","","","","","","","","","","","",""
"poldrack-multi-stim-multi-response","6","52927","0.0-3.0-1.0","1106","digit-span","true","0","","[-1]","","","stim","","[""<div class = centerbox><div class = digit-span-text>2</div></div>"",""<div class = centerbox><div class = digit-span-text>9</div></div>""]","[-1]","none","[1000,1000]","2400","0","test","2,9","2","","","","",""
"single-stim-button","7","57161","0.0-3.0-2.0","1106","digit-span","true","0","","4233","","","response","","","","","","4233","1000","test","2,9","2","SubmitButton","4233","2,9","forward","true"
"html-keyboard-response","8","58170","0.0-3.0-3.0","1106","digit-span","true","0","","null","<div class = centerbox><div class = center-text>2 Digits</p></div>","null","test_intro","","","","","","","","","","","","","","",""
"poldrack-multi-stim-multi-response","9","61573","0.0-3.0-4.0","1106","digit-span","true","0","","[-1]","","","stim","","[""<div class = centerbox><div class = digit-span-text>4</div></div>"",""<div class = centerbox><div class = digit-span-text>6</div></div>""]","[-1]","none","[1000,1000]","2400","0","test","4,6","2","","","","",""
"single-stim-button","10","67510","0.0-3.0-5.0","1106","digit-span","true","0","","5937","","","response","","","","","","5937","1000","test","4,6","2","SubmitButton","5937","4,6","forward","true"
"html-keyboard-response","11","68511","0.0-4.0-0.0","1106","digit-span","true","0","","null","<div class = centerbox><div class = center-text>3 Digits</p></div>","null","test_intro","","","","","","","","","","","","","","",""
"poldrack-multi-stim-multi-response","12","73114","0.0-4.0-1.0","1106","digit-span","true","0","","[-1]","","","stim","","[""<div class = centerbox><div class = digit-span-text>3</div></div>"",""<div class = centerbox><div class = digit-span-text>8</div></div>"",""<div class = centerbox><div class = digit-span-text>6</div></div>""]","[-1]","none","[1000,1000,1000]","3600","0","test","3,8,6","3","","","","",""
"single-stim-button","13","76848","0.0-4.0-2.0","1106","digit-span","true","0","","3733","","","response","","","","","","3733","1000","test","3,8,6","3","SubmitButton","3733","3,8,6","forward","true"
"html-keyboard-response","14","77851","0.0-4.0-3.0","1106","digit-span","true","0","","null","<div class = centerbox><div class = center-text>3 Digits</p></div>","null","test_intro","","","","","","","","","","","","","","",""
"poldrack-multi-stim-multi-response","15","82461","0.0-4.0-4.0","1106","digit-span","true","0","","[-1]","","","stim","","[""<div class = centerbox><div class = digit-span-text>6</div></div>"",""<div class = centerbox><div class = digit-span-text>1</div></div>"",""<div class = centerbox><div class = digit-span-text>2</div></div>""]","[-1]","none","[1000,1000,1000]","3600","0","test","6,1,2","3","","","","",""
"single-stim-button","16","85586","0.0-4.0-5.0","1106","digit-span","true","0","","3124","","","response","","","","","","3124","1000","test","6,1,2","3","SubmitButton","3124","6,1,2","forward","true"
"html-keyboard-response","17","86588","0.0-5.0-0.0","1106","digit-span","true","0","","null","<div class = centerbox><div class = center-text>4 Digits</p></div>","null","test_intro","","","","","","","","","","","","","","",""
"poldrack-multi-stim-multi-response","18","92392","0.0-5.0-1.0","1106","digit-span","true","0","","[-1]","","","stim","","[""<div class = centerbox><div class = digit-span-text>3</div></div>"",""<div class = centerbox><div class = digit-span-text>4</div></div>"",""<div class = centerbox><div class = digit-span-text>1</div></div>"",""<div class = centerbox><div class = digit-span-text>7</div></div>""]","[-1]","none","[1000,1000,1000,1000]","4800","0","test","3,4,1,7","4","","","","",""
"single-stim-button","19","95886","0.0-5.0-2.0","1106","digit-span","true","0","","3494","","","response","","","","","","3494","1000","test","3,4,1,7","4","SubmitButton","3494","3,4,1,7","forward","true"
"html-keyboard-response","20","96889","0.0-5.0-3.0","1106","digit-span","true","0","","null","<div class = centerbox><div class = center-text>4 Digits</p></div>","null","test_intro","","","","","","","","","","","","","","",""
"poldrack-multi-stim-multi-response","21","102707","0.0-5.0-4.0","1106","digit-span","true","0","","[-1]","","","stim","","[""<div class = centerbox><div class = digit-span-text>6</div></div>"",""<div class = centerbox><div class = digit-span-text>1</div></div>"",""<div class = centerbox><div class = digit-span-text>5</div></div>"",""<div class = centerbox><div class = digit-span-text>8</div></div>""]","[-1]","none","[1000,1000,1000,1000]","4800","0","test","6,1,5,8","4","","","","",""
"single-stim-button","22","106092","0.0-5.0-5.0","1106","digit-span","true","0","","3384","","","response","","","","","","3384","1000","test","6,1,5,8","4","SubmitButton","3384","6,1,5,8","forward","true"
"html-keyboard-response","23","107101","0.0-6.0-0.0","1106","digit-span","true","0","","null","<div class = centerbox><div class = center-text>5 Digits</p></div>","null","test_intro","","","","","","","","","","","","","","",""
"poldrack-multi-stim-multi-response","24","114106","0.0-6.0-1.0","1106","digit-span","true","0","","[-1]","","","stim","","[""<div class = centerbox><div class = digit-span-text>8</div></div>"",""<div class = centerbox><div class = digit-span-text>4</div></div>"",""<div class = centerbox><div class = digit-span-text>2</div></div>"",""<div class = centerbox><div class = digit-span-text>3</div></div>"",""<div class = centerbox><div class = digit-span-text>9</div></div>""]","[-1]","none","[1000,1000,1000,1000,1000]","6000","0","test","8,4,2,3,9","5","","","","",""
"single-stim-button","25","119272","0.0-6.0-2.0","1106","digit-span","true","0","","5165","","","response","","","","","","5165","1000","test","8,4,2,3,9","5","SubmitButton","5165","8,4,2,3,9","forward","true"
"html-keyboard-response","26","120273","0.0-6.0-3.0","1106","digit-span","true","0","","null","<div class = centerbox><div class = center-text>5 Digits</p></div>","null","test_intro","","","","","","","","","","","","","","",""
"poldrack-multi-stim-multi-response","27","127276","0.0-6.0-4.0","1106","digit-span","true","0","","[-1]","","","stim","","[""<div class = centerbox><div class = digit-span-text>5</div></div>"",""<div class = centerbox><div class = digit-span-text>2</div></div>"",""<div class = centerbox><div class = digit-span-text>1</div></div>"",""<div class = centerbox><div class = digit-span-text>8</div></div>"",""<div class = centerbox><div class = digit-span-text>6</div></div>""]","[-1]","none","[1000,1000,1000,1000,1000]","6000","0","test","5,2,1,8,6","5","","","","",""
"single-stim-button","28","131768","0.0-6.0-5.0","1106","digit-span","true","0","","4491","","","response","","","","","","4491","1000","test","5,2,1,8,6","5","SubmitButton","4491","5,2,1,8,6","forward","true"
"html-keyboard-response","29","132771","0.0-7.0-0.0","1106","digit-span","true","0","","null","<div class = centerbox><div class = center-text>6 Digits</p></div>","null","test_intro","","","","","","","","","","","","","","",""
"poldrack-multi-stim-multi-response","30","140974","0.0-7.0-1.0","1106","digit-span","true","0","","[-1]","","","stim","","[""<div class = centerbox><div class = digit-span-text>3</div></div>"",""<div class = centerbox><div class = digit-span-text>8</div></div>"",""<div class = centerbox><div class = digit-span-text>9</div></div>"",""<div class = centerbox><div class = digit-span-text>1</div></div>"",""<div class = centerbox><div class = digit-span-text>7</div></div>"",""<div class = centerbox><div class = digit-span-text>4</div></div>""]","[-1]","none","[1000,1000,1000,1000,1000,1000]","7200","0","test","3,8,9,1,7,4","6","","","","",""
"single-stim-button","31","145546","0.0-7.0-2.0","1106","digit-span","true","0","","4571","","","response","","","","","","4571","1000","test","3,8,9,1,7,4","6","SubmitButton","4571","3,8,9,1,7,4","forward","true"
"html-keyboard-response","32","146547","0.0-7.0-3.0","1106","digit-span","true","0","","null","<div class = centerbox><div class = center-text>6 Digits</p></div>","null","test_intro","","","","","","","","","","","","","","",""
"poldrack-multi-stim-multi-response","33","154750","0.0-7.0-4.0","1106","digit-span","true","0","","[-1]","","","stim","","[""<div class = centerbox><div class = digit-span-text>7</div></div>"",""<div class = centerbox><div class = digit-span-text>9</div></div>"",""<div class = centerbox><div class = digit-span-text>6</div></div>"",""<div class = centerbox><div class = digit-span-text>4</div></div>"",""<div class = centerbox><div class = digit-span-text>8</div></div>"",""<div class = centerbox><div class = digit-span-text>3</div></div>""]","[-1]","none","[1000,1000,1000,1000,1000,1000]","7200","0","test","7,9,6,4,8,3","6","","","","",""
"single-stim-button","34","160166","0.0-7.0-5.0","1106","digit-span","true","0","","5414","","","response","","","","","","5414","1000","test","7,9,6,4,8,3","6","SubmitButton","5414","7,9,6,4,8,3","forward","true"
"html-keyboard-response","35","161168","0.0-8.0-0.0","1106","digit-span","true","0","","null","<div class = centerbox><div class = center-text>7 Digits</p></div>","null","test_intro","","","","","","","","","","","","","","",""
"poldrack-multi-stim-multi-response","36","170572","0.0-8.0-1.0","1106","digit-span","true","0","","[-1]","","","stim","","[""<div class = centerbox><div class = digit-span-text>5</div></div>"",""<div class = centerbox><div class = digit-span-text>1</div></div>"",""<div class = centerbox><div class = digit-span-text>7</div></div>"",""<div class = centerbox><div class = digit-span-text>4</div></div>"",""<div class = centerbox><div class = digit-span-text>2</div></div>"",""<div class = centerbox><div class = digit-span-text>3</div></div>"",""<div class = centerbox><div class = digit-span-text>8</div></div>""]","[-1]","none","[1000,1000,1000,1000,1000,1000,1000]","8400","0","test","5,1,7,4,2,3,8","7","","","","",""
"single-stim-button","37","176500","0.0-8.0-2.0","1106","digit-span","true","0","","5927","","","response","","","","","","5927","1000","test","5,1,7,4,2,3,8","7","SubmitButton","5927","5,1,7,4,2,3,8","forward","true"
"html-keyboard-response","38","177502","0.0-8.0-3.0","1106","digit-span","true","0","","null","<div class = centerbox><div class = center-text>7 Digits</p></div>","null","test_intro","","","","","","","","","","","","","","",""
"poldrack-multi-stim-multi-response","39","186904","0.0-8.0-4.0","1106","digit-span","true","0","","[-1]","","","stim","","[""<div class = centerbox><div class = digit-span-text>9</div></div>"",""<div class = centerbox><div class = digit-span-text>8</div></div>"",""<div class = centerbox><div class = digit-span-text>5</div></div>"",""<div class = centerbox><div class = digit-span-text>2</div></div>"",""<div class = centerbox><div class = digit-span-text>1</div></div>"",""<div class = centerbox><div class = digit-span-text>6</div></div>"",""<div class = centerbox><div class = digit-span-text>3</div></div>""]","[-1]","none","[1000,1000,1000,1000,1000,1000,1000]","8400","0","test","9,8,5,2,1,6,3","7","","","","",""
"single-stim-button","40","192689","0.0-8.0-5.0","1106","digit-span","true","0","","5784","","","response","","","","","","5784","1000","test","9,8,5,2,1,6,3","7","SubmitButton","5784","9,8,5,2,1,6,3","forward","true"
"html-keyboard-response","41","193689","0.0-9.0-0.0","1106","digit-span","true","0","","null","<div class = centerbox><div class = center-text>8 Digits</p></div>","null","test_intro","","","","","","","","","","","","","","",""
"poldrack-multi-stim-multi-response","42","204292","0.0-9.0-1.0","1106","digit-span","true","0","","[-1]","","","stim","","[""<div class = centerbox><div class = digit-span-text>1</div></div>"",""<div class = centerbox><div class = digit-span-text>6</div></div>"",""<div class = centerbox><div class = digit-span-text>4</div></div>"",""<div class = centerbox><div class = digit-span-text>5</div></div>"",""<div class = centerbox><div class = digit-span-text>9</div></div>"",""<div class = centerbox><div class = digit-span-text>7</div></div>"",""<div class = centerbox><div class = digit-span-text>6</div></div>"",""<div class = centerbox><div class = digit-span-text>3</div></div>""]","[-1]","none","[1000,1000,1000,1000,1000,1000,1000,1000]","9600","0","test","1,6,4,5,9,7,6,3","8","","","","",""
"single-stim-button","43","210036","0.0-9.0-2.0","1106","digit-span","true","0","","5743","","","response","","","","","","5743","1000","test","1,6,4,5,9,7,6,3","8","SubmitButton","5743","1,6,4,5,9,7,6,3","forward","true"
"html-keyboard-response","44","211037","0.0-9.0-3.0","1106","digit-span","true","0","","null","<div class = centerbox><div class = center-text>8 Digits</p></div>","null","test_intro","","","","","","","","","","","","","","",""
"poldrack-multi-stim-multi-response","45","221641","0.0-9.0-4.0","1106","digit-span","true","0","","[-1]","","","stim","","[""<div class = centerbox><div class = digit-span-text>2</div></div>"",""<div class = centerbox><div class = digit-span-text>9</div></div>"",""<div class = centerbox><div class = digit-span-text>7</div></div>"",""<div class = centerbox><div class = digit-span-text>6</div></div>"",""<div class = centerbox><div class = digit-span-text>3</div></div>"",""<div class = centerbox><div class = digit-span-text>1</div></div>"",""<div class = centerbox><div class = digit-span-text>5</div></div>"",""<div class = centerbox><div class = digit-span-text>4</div></div>""]","[-1]","none","[1000,1000,1000,1000,1000,1000,1000,1000]","9600","0","test","2,9,7,6,3,1,5,4","8","","","","",""
"single-stim-button","46","228828","0.0-9.0-5.0","1106","digit-span","true","0","","7186","","","response","","","","","","7186","1000","test","2,9,7,6,3,1,5,4","8","SubmitButton","7186","2,9,7,6,3,1,5,4","forward","true"
"html-keyboard-response","47","229830","0.0-10.0-0.0","1106","digit-span","true","0","","null","<div class = centerbox><div class = center-text>9 Digits</p></div>","null","test_intro","","","","","","","","","","","","","","",""
"poldrack-multi-stim-multi-response","48","241634","0.0-10.0-1.0","1106","digit-span","true","0","","[-1]","","","stim","","[""<div class = centerbox><div class = digit-span-text>5</div></div>"",""<div class = centerbox><div class = digit-span-text>3</div></div>"",""<div class = centerbox><div class = digit-span-text>8</div></div>"",""<div class = centerbox><div class = digit-span-text>7</div></div>"",""<div class = centerbox><div class = digit-span-text>1</div></div>"",""<div class = centerbox><div class = digit-span-text>2</div></div>"",""<div class = centerbox><div class = digit-span-text>4</div></div>"",""<div class = centerbox><div class = digit-span-text>6</div></div>"",""<div class = centerbox><div class = digit-span-text>9</div></div>""]","[-1]","none","[1000,1000,1000,1000,1000,1000,1000,1000,1000]","10800","0","test","5,3,8,7,1,2,4,6,9","9","","","","",""
"single-stim-button","49","248974","0.0-10.0-2.0","1106","digit-span","true","0","","7338","","","response","","","","","","7338","1000","test","5,3,8,7,1,2,4,6,9","9","SubmitButton","7338","5,3,8,7,1,2,4,6,9","forward","true"
"html-keyboard-response","50","249976","0.0-10.0-3.0","1106","digit-span","true","0","","null","<div class = centerbox><div class = center-text>9 Digits</p></div>","null","test_intro","","","","","","","","","","","","","","",""
"poldrack-multi-stim-multi-response","51","261779","0.0-10.0-4.0","1106","digit-span","true","0","","[-1]","","","stim","","[""<div class = centerbox><div class = digit-span-text>4</div></div>"",""<div class = centerbox><div class = digit-span-text>2</div></div>"",""<div class = centerbox><div class = digit-span-text>6</div></div>"",""<div class = centerbox><div class = digit-span-text>9</div></div>"",""<div class = centerbox><div class = digit-span-text>1</div></div>"",""<div class = centerbox><div class = digit-span-text>7</div></div>"",""<div class = centerbox><div class = digit-span-text>8</div></div>"",""<div class = centerbox><div class = digit-span-text>3</div></div>"",""<div class = centerbox><div class = digit-span-text>5</div></div>""]","[-1]","none","[1000,1000,1000,1000,1000,1000,1000,1000,1000]","10800","0","test","4,2,6,9,1,7,8,3,5","9","","","","",""
"single-stim-button","52","269456","0.0-10.0-5.0","1106","digit-span","true","0","","7675","","","response","","","","","","7675","1000","test","4,2,6,9,1,7,8,3,5","9","SubmitButton","7675","1,2,3,4,5,6,7,8,9","forward","false"
"html-keyboard-response","53","290221","0.0-11.0","1106","digit-span","true","0","","20763.60000014305","<div class = centerbox><p class = block-text>Now, you will see some numbers, but this time you will enter them <strong>backward</strong>.<br><br>For example, you see <strong>“1—5”</strong>, and you will enter <strong>“5—1”</strong>.<br><br><br>Press <strong>""Enter/Return""</strong> to begin.</p></div>","13","start_reverse","","","","","","","","","","","","","","",""
"html-keyboard-response","54","291222","0.0-12.0-0.0","1106","digit-span","true","0","","null","<div class = centerbox><div class = center-text>2 Digits</p></div>","null","test_intro","","","","","","","","","","","","","","",""
"poldrack-multi-stim-multi-response","55","294625","0.0-12.0-1.0","1106","digit-span","true","0","","[-1]","","","stim","","[""<div class = centerbox><div class = digit-span-text>8</div></div>"",""<div class = centerbox><div class = digit-span-text>2</div></div>""]","[-1]","none","[1000,1000]","2400","0","test","8,2","2","","","","",""
"single-stim-button","56","298052","0.0-12.0-2.0","1106","digit-span","true","0","","3427","","","response","","","","","","3427","1000","test","8,2","2","SubmitButton","3427","2,8","practice","true"
"html-keyboard-response","57","308053","0.0-12.0-3.0","1106","digit-span","true","0","","null","<div class = centerbox><div class = center-block-text><span style=""color:green"">Correct!</span></div></div>","null","feedback","","","","","","","","","","","","","","",""
"html-keyboard-response","58","309055","0.0-12.0-4.0","1106","digit-span","true","0","","null","<div class = centerbox><div class = center-text>2 Digits</p></div>","null","test_intro","","","","","","","","","","","","","","",""
"poldrack-multi-stim-multi-response","59","312458","0.0-12.0-5.0","1106","digit-span","true","0","","[-1]","","","stim","","[""<div class = centerbox><div class = digit-span-text>5</div></div>"",""<div class = centerbox><div class = digit-span-text>6</div></div>""]","[-1]","none","[1000,1000]","2400","0","test","5,6","2","","","","",""
"single-stim-button","60","315336","0.0-12.0-6.0","1106","digit-span","true","0","","2877","","","response","","","","","","2877","1000","test","5,6","2","SubmitButton","2877","6,5","practice","true"
"html-keyboard-response","61","316338","0.0-13.0-0.0","1106","digit-span","true","0","","null","<div class = centerbox><div class = center-text>2 Digits</p></div>","null","test_intro","","","","","","","","","","","","","","",""
"poldrack-multi-stim-multi-response","62","319741","0.0-13.0-1.0","1106","digit-span","true","0","","[-1]","","","stim","","[""<div class = centerbox><div class = digit-span-text>2</div></div>"",""<div class = centerbox><div class = digit-span-text>5</div></div>""]","[-1]","none","[1000,1000]","2400","0","test","2,5","2","","","","",""
"single-stim-button","63","321938","0.0-13.0-2.0","1106","digit-span","true","0","","2195","","","response","","","","","","2195","1000","test","2,5","2","SubmitButton","2195","5,2","reverse","true"
"html-keyboard-response","64","322942","0.0-13.0-3.0","1106","digit-span","true","0","","null","<div class = centerbox><div class = center-text>2 Digits</p></div>","null","test_intro","","","","","","","","","","","","","","",""
"poldrack-multi-stim-multi-response","65","326345","0.0-13.0-4.0","1106","digit-span","true","0","","[-1]","","","stim","","[""<div class = centerbox><div class = digit-span-text>6</div></div>"",""<div class = centerbox><div class = digit-span-text>3</div></div>""]","[-1]","none","[1000,1000]","2400","0","test","6,3","2","","","","",""
"single-stim-button","66","329624","0.0-13.0-5.0","1106","digit-span","true","0","","3278","","","response","","","","","","3278","1000","test","6,3","2","SubmitButton","3278","3,6","reverse","true"
"html-keyboard-response","67","330625","0.0-14.0-0.0","1106","digit-span","true","0","","null","<div class = centerbox><div class = center-text>3 Digits</p></div>","null","test_intro","","","","","","","","","","","","","","",""
"poldrack-multi-stim-multi-response","68","335228","0.0-14.0-1.0","1106","digit-span","true","0","","[-1]","","","stim","","[""<div class = centerbox><div class = digit-span-text>5</div></div>"",""<div class = centerbox><div class = digit-span-text>7</div></div>"",""<div class = centerbox><div class = digit-span-text>4</div></div>""]","[-1]","none","[1000,1000,1000]","3600","0","test","5,7,4","3","","","","",""
"single-stim-button","69","339318","0.0-14.0-2.0","1106","digit-span","true","0","","4088","","","response","","","","","","4088","1000","test","5,7,4","3","SubmitButton","4088","4,7,5","reverse","true"
"html-keyboard-response","70","340320","0.0-14.0-3.0","1106","digit-span","true","0","","null","<div class = centerbox><div class = center-text>3 Digits</p></div>","null","test_intro","","","","","","","","","","","","","","",""
"poldrack-multi-stim-multi-response","71","344923","0.0-14.0-4.0","1106","digit-span","true","0","","[-1]","","","stim","","[""<div class = centerbox><div class = digit-span-text>2</div></div>"",""<div class = centerbox><div class = digit-span-text>5</div></div>"",""<div class = centerbox><div class = digit-span-text>9</div></div>""]","[-1]","none","[1000,1000,1000]","3600","0","test","2,5,9","3","","","","",""
"single-stim-button","72","349104","0.0-14.0-5.0","1106","digit-span","true","0","","4179","","","response","","","","","","4179","1000","test","2,5,9","3","SubmitButton","4179","9,5,2","reverse","true"
"html-keyboard-response","73","350105","0.0-15.0-0.0","1106","digit-span","true","0","","null","<div class = centerbox><div class = center-text>4 Digits</p></div>","null","test_intro","","","","","","","","","","","","","","",""
"poldrack-multi-stim-multi-response","74","355910","0.0-15.0-1.0","1106","digit-span","true","0","","[-1]","","","stim","","[""<div class = centerbox><div class = digit-span-text>7</div></div>"",""<div class = centerbox><div class = digit-span-text>2</div></div>"",""<div class = centerbox><div class = digit-span-text>9</div></div>"",""<div class = centerbox><div class = digit-span-text>6</div></div>""]","[-1]","none","[1000,1000,1000,1000]","4800","0","test","7,2,9,6","4","","","","",""
"single-stim-button","75","359781","0.0-15.0-2.0","1106","digit-span","true","0","","3869","","","response","","","","","","3869","1000","test","7,2,9,6","4","SubmitButton","3869","6,9,2,7","reverse","true"
"html-keyboard-response","76","360784","0.0-15.0-3.0","1106","digit-span","true","0","","null","<div class = centerbox><div class = center-text>4 Digits</p></div>","null","test_intro","","","","","","","","","","","","","","",""
"poldrack-multi-stim-multi-response","77","366587","0.0-15.0-4.0","1106","digit-span","true","0","","[-1]","","","stim","","[""<div class = centerbox><div class = digit-span-text>8</div></div>"",""<div class = centerbox><div class = digit-span-text>4</div></div>"",""<div class = centerbox><div class = digit-span-text>9</div></div>"",""<div class = centerbox><div class = digit-span-text>3</div></div>""]","[-1]","none","[1000,1000,1000,1000]","4800","0","test","8,4,9,3","4","","","","",""
"single-stim-button","78","371423","0.0-15.0-5.0","1106","digit-span","true","0","","4835","","","response","","","","","","4835","1000","test","8,4,9,3","4","SubmitButton","4835","3,9,4,8","reverse","true"
"html-keyboard-response","79","372425","0.0-16.0-0.0","1106","digit-span","true","0","","null","<div class = centerbox><div class = center-text>5 Digits</p></div>","null","test_intro","","","","","","","","","","","","","","",""
"poldrack-multi-stim-multi-response","80","379428","0.0-16.0-1.0","1106","digit-span","true","0","","[-1]","","","stim","","[""<div class = centerbox><div class = digit-span-text>4</div></div>"",""<div class = centerbox><div class = digit-span-text>1</div></div>"",""<div class = centerbox><div class = digit-span-text>3</div></div>"",""<div class = centerbox><div class = digit-span-text>5</div></div>"",""<div class = centerbox><div class = digit-span-text>7</div></div>""]","[-1]","none","[1000,1000,1000,1000,1000]","6000","0","test","4,1,3,5,7","5","","","","",""
"single-stim-button","81","390528","0.0-16.0-2.0","1106","digit-span","true","0","","11099","","","response","","","","","","11099","1000","test","4,1,3,5,7","5","SubmitButton","11099","7,5,1,3,4","reverse","false"
"html-keyboard-response","82","391531","0.0-16.0-3.0","1106","digit-span","true","0","","null","<div class = centerbox><div class = center-text>5 Digits</p></div>","null","test_intro","","","","","","","","","","","","","","",""
"poldrack-multi-stim-multi-response","83","398533","0.0-16.0-4.0","1106","digit-span","true","0","","[-1]","","","stim","","[""<div class = centerbox><div class = digit-span-text>9</div></div>"",""<div class = centerbox><div class = digit-span-text>7</div></div>"",""<div class = centerbox><div class = digit-span-text>8</div></div>"",""<div class = centerbox><div class = digit-span-text>5</div></div>"",""<div class = centerbox><div class = digit-span-text>2</div></div>""]","[-1]","none","[1000,1000,1000,1000,1000]","6000","0","test","9,7,8,5,2","5","","","","",""
"single-stim-button","84","405212","0.0-16.0-5.0","1106","digit-span","true","0","","6679","","","response","","","","","","6679","1000","test","9,7,8,5,2","5","SubmitButton","6679","2,5,8,7,9","reverse","true"
"html-keyboard-response","85","406215","0.0-17.0-0.0","1106","digit-span","true","0","","null","<div class = centerbox><div class = center-text>6 Digits</p></div>","null","test_intro","","","","","","","","","","","","","","",""
"poldrack-multi-stim-multi-response","86","414418","0.0-17.0-1.0","1106","digit-span","true","0","","[-1]","","","stim","","[""<div class = centerbox><div class = digit-span-text>1</div></div>"",""<div class = centerbox><div class = digit-span-text>6</div></div>"",""<div class = centerbox><div class = digit-span-text>5</div></div>"",""<div class = centerbox><div class = digit-span-text>2</div></div>"",""<div class = centerbox><div class = digit-span-text>9</div></div>"",""<div class = centerbox><div class = digit-span-text>8</div></div>""]","[-1]","none","[1000,1000,1000,1000,1000,1000]","7200","0","test","1,6,5,2,9,8","6","","","","",""
"single-stim-button","87","430578","0.0-17.0-2.0","1106","digit-span","true","0","","16158","","","response","","","","","","16158","1000","test","1,6,5,2,9,8","6","SubmitButton","16158","8,5,4,6,2,7","reverse","false"
"html-keyboard-response","88","431589","0.0-17.0-3.0","1106","digit-span","true","0","","null","<div class = centerbox><div class = center-text>6 Digits</p></div>","null","test_intro","","","","","","","","","","","","","","",""
"poldrack-multi-stim-multi-response","89","439792","0.0-17.0-4.0","1106","digit-span","true","0","","[-1]","","","stim","","[""<div class = centerbox><div class = digit-span-text>3</div></div>"",""<div class = centerbox><div class = digit-span-text>6</div></div>"",""<div class = centerbox><div class = digit-span-text>7</div></div>"",""<div class = centerbox><div class = digit-span-text>1</div></div>"",""<div class = centerbox><div class = digit-span-text>9</div></div>"",""<div class = centerbox><div class = digit-span-text>4</div></div>""]","[-1]","none","[1000,1000,1000,1000,1000,1000]","7200","0","test","3,6,7,1,9,4","6","","","","",""
"single-stim-button","90","447126","0.0-17.0-5.0","1106","digit-span","true","0","","7333","","","response","","","","","","7333","1000","test","3,6,7,1,9,4","6","SubmitButton","7333","4,9,3,1,7,6","reverse","false"
"image-keyboard-response","91","449908","0.0-20.0","1106","digit-span","true","0","","2780.600000143051","img/trophy2.jpeg","13","end","","","","","","","","","","","","","","",""
