"trial_type","trial_index","time_elapsed","internal_node_id","subject","exp_id","full_screen","focus_shifts","success","rt","stimulus","key_press","trial_id","view_history","stimuli","key_presses","possible_responses","stim_durations","block_duration","timing_post_trial","exp_stage","sequence","num_digits","mouse_click","stim_duration","response","condition","correct"
"pavlovia","0","2253","0.0-0.0","1200","digit-span","true","0","","","","","","","","","","","","","","","","","","","",""
"fullscreen","1","13319","0.0-1.0","1200","digit-span","true","0","true","","","","","","","","","","","","","","","","","","",""
"html-keyboard-response","2","82189","0.0-2.0-0.0","1200","digit-span","true","0","","68861.40000009537","<div class = centerbox><p class = center-block-text>Welcome to the number game! It will take less than 5 minutes. Press <strong>""Enter/Return""</strong> to begin.</p></div>","13","instruction","","","","","","","","","","","","","","",""
"instructions","3","93400","0.0-2.0-1.0","1200","digit-span","true","0","","11208.700000047684","","","instruction","[{""page_index"":0,""viewing_time"":11207.200000047684}]","","","","","","","","","","","","","",""
"instructions","4","100335","0.0-2.0-2.0","1200","digit-span","true","0","","5929.799999952316","","","instruction","[{""page_index"":0,""viewing_time"":5928.799999952316}]","","","","","","","","","","","","","",""
"html-keyboard-response","5","102350","0.0-3.0-0.0","1200","digit-span","true","0","","null","<div class = centerbox><div class = center-text>2 Digits</p></div>","null","test_intro","","","","","","","","","","","","","","",""
"poldrack-multi-stim-multi-response","6","105768","0.0-3.0-1.0","1200","digit-span","true","0","","[-1]","","","stim","","[""<div class = centerbox><div class = digit-span-text>2</div></div>"",""<div class = centerbox><div class = digit-span-text>9</div></div>""]","[-1]","none","[1000,1000]","2400","0","test","2,9","2","","","","",""
"single-stim-button","7","110450","0.0-3.0-2.0","1200","digit-span","true","0","","4672","","","response","","","","","","4672","1000","test","2,9","2","SubmitButton","4672","2,9","forward","true"
"html-keyboard-response","8","111454","0.0-3.0-3.0","1200","digit-span","true","0","","null","<div class = centerbox><div class = center-text>2 Digits</p></div>","null","test_intro","","","","","","","","","","","","","","",""
"poldrack-multi-stim-multi-response","9","114864","0.0-3.0-4.0","1200","digit-span","true","0","","[-1]","","","stim","","[""<div class = centerbox><div class = digit-span-text>4</div></div>"",""<div class = centerbox><div class = digit-span-text>6</div></div>""]","[-1]","none","[1000,1000]","2400","0","test","4,6","2","","","","",""
"single-stim-button","10","118271","0.0-3.0-5.0","1200","digit-span","true","0","","3402","","","response","","","","","","3402","1000","test","4,6","2","SubmitButton","3402","4,6","forward","true"
"html-keyboard-response","11","119275","0.0-4.0-0.0","1200","digit-span","true","0","","null","<div class = centerbox><div class = center-text>3 Digits</p></div>","null","test_intro","","","","","","","","","","","","","","",""
"poldrack-multi-stim-multi-response","12","123884","0.0-4.0-1.0","1200","digit-span","true","0","","[-1]","","","stim","","[""<div class = centerbox><div class = digit-span-text>3</div></div>"",""<div class = centerbox><div class = digit-span-text>8</div></div>"",""<div class = centerbox><div class = digit-span-text>6</div></div>""]","[-1]","none","[1000,1000,1000]","3600","0","test","3,8,6","3","","","","",""
"single-stim-button","13","128867","0.0-4.0-2.0","1200","digit-span","true","0","","4976","","","response","","","","","","4976","1000","test","3,8,6","3","SubmitButton","4976","3,8,6","forward","true"
"html-keyboard-response","14","129871","0.0-4.0-3.0","1200","digit-span","true","0","","null","<div class = centerbox><div class = center-text>3 Digits</p></div>","null","test_intro","","","","","","","","","","","","","","",""
"poldrack-multi-stim-multi-response","15","134481","0.0-4.0-4.0","1200","digit-span","true","0","","[-1]","","","stim","","[""<div class = centerbox><div class = digit-span-text>6</div></div>"",""<div class = centerbox><div class = digit-span-text>1</div></div>"",""<div class = centerbox><div class = digit-span-text>2</div></div>""]","[-1]","none","[1000,1000,1000]","3600","0","test","6,1,2","3","","","","",""
"single-stim-button","16","139271","0.0-4.0-5.0","1200","digit-span","true","0","","4786","","","response","","","","","","4786","1000","test","6,1,2","3","SubmitButton","4786","6,1,2","forward","true"
"html-keyboard-response","17","140281","0.0-5.0-0.0","1200","digit-span","true","0","","null","<div class = centerbox><div class = center-text>4 Digits</p></div>","null","test_intro","","","","","","","","","","","","","","",""
"poldrack-multi-stim-multi-response","18","146088","0.0-5.0-1.0","1200","digit-span","true","0","","[-1]","","","stim","","[""<div class = centerbox><div class = digit-span-text>3</div></div>"",""<div class = centerbox><div class = digit-span-text>4</div></div>"",""<div class = centerbox><div class = digit-span-text>1</div></div>"",""<div class = centerbox><div class = digit-span-text>7</div></div>""]","[-1]","none","[1000,1000,1000,1000]","4800","0","test","3,4,1,7","4","","","","",""
"single-stim-button","19","161143","0.0-5.0-2.0","1200","digit-span","true","0","","15049","","","response","","","","","","15049","1000","test","3,4,1,7","4","SubmitButton","15049","3,4,1,7","forward","true"
"html-keyboard-response","20","162148","0.0-5.0-3.0","1200","digit-span","true","0","","null","<div class = centerbox><div class = center-text>4 Digits</p></div>","null","test_intro","","","","","","","","","","","","","","",""
"poldrack-multi-stim-multi-response","21","167955","0.0-5.0-4.0","1200","digit-span","true","0","","[-1]","","","stim","","[""<div class = centerbox><div class = digit-span-text>6</div></div>"",""<div class = centerbox><div class = digit-span-text>1</div></div>"",""<div class = centerbox><div class = digit-span-text>5</div></div>"",""<div class = centerbox><div class = digit-span-text>8</div></div>""]","[-1]","none","[1000,1000,1000,1000]","4800","0","test","6,1,5,8","4","","","","",""
"single-stim-button","22","172296","0.0-5.0-5.0","1200","digit-span","true","0","","4337","","","response","","","","","","4337","1000","test","6,1,5,8","4","SubmitButton","4337","6,1,5,8","forward","true"
"html-keyboard-response","23","173305","0.0-6.0-0.0","1200","digit-span","true","0","","null","<div class = centerbox><div class = center-text>5 Digits</p></div>","null","test_intro","","","","","","","","","","","","","","",""
"poldrack-multi-stim-multi-response","24","180312","0.0-6.0-1.0","1200","digit-span","true","0","","[-1]","","","stim","","[""<div class = centerbox><div class = digit-span-text>8</div></div>"",""<div class = centerbox><div class = digit-span-text>4</div></div>"",""<div class = centerbox><div class = digit-span-text>2</div></div>"",""<div class = centerbox><div class = digit-span-text>3</div></div>"",""<div class = centerbox><div class = digit-span-text>9</div></div>""]","[-1]","none","[1000,1000,1000,1000,1000]","6000","0","test","8,4,2,3,9","5","","","","",""
"single-stim-button","25","186468","0.0-6.0-2.0","1200","digit-span","true","0","","6149","","","response","","","","","","6149","1000","test","8,4,2,3,9","5","SubmitButton","6149","8,4,2,3,9","forward","true"
"html-keyboard-response","26","187472","0.0-6.0-3.0","1200","digit-span","true","0","","null","<div class = centerbox><div class = center-text>5 Digits</p></div>","null","test_intro","","","","","","","","","","","","","","",""
"poldrack-multi-stim-multi-response","27","194479","0.0-6.0-4.0","1200","digit-span","true","0","","[-1]","","","stim","","[""<div class = centerbox><div class = digit-span-text>5</div></div>"",""<div class = centerbox><div class = digit-span-text>2</div></div>"",""<div class = centerbox><div class = digit-span-text>1</div></div>"",""<div class = centerbox><div class = digit-span-text>8</div></div>"",""<div class = centerbox><div class = digit-span-text>6</div></div>""]","[-1]","none","[1000,1000,1000,1000,1000]","6000","0","test","5,2,1,8,6","5","","","","",""
"single-stim-button","28","202456","0.0-6.0-5.0","1200","digit-span","true","0","","7972","","","response","","","","","","7972","1000","test","5,2,1,8,6","5","SubmitButton","7972","5,2,1,8,6","forward","true"
"html-keyboard-response","29","203481","0.0-7.0-0.0","1200","digit-span","true","0","","null","<div class = centerbox><div class = center-text>6 Digits</p></div>","null","test_intro","","","","","","","","","","","","","","",""
"poldrack-multi-stim-multi-response","30","211688","0.0-7.0-1.0","1200","digit-span","true","0","","[-1]","","","stim","","[""<div class = centerbox><div class = digit-span-text>3</div></div>"",""<div class = centerbox><div class = digit-span-text>8</div></div>"",""<div class = centerbox><div class = digit-span-text>9</div></div>"",""<div class = centerbox><div class = digit-span-text>1</div></div>"",""<div class = centerbox><div class = digit-span-text>7</div></div>"",""<div class = centerbox><div class = digit-span-text>4</div></div>""]","[-1]","none","[1000,1000,1000,1000,1000,1000]","7200","0","test","3,8,9,1,7,4","6","","","","",""
"single-stim-button","31","227192","0.0-7.0-2.0","1200","digit-span","true","0","","15499","","","response","","","","","","15499","1000","test","3,8,9,1,7,4","6","SubmitButton","15499","3,8,9,1,7,4","forward","true"
"html-keyboard-response","32","228197","0.0-7.0-3.0","1200","digit-span","true","0","","null","<div class = centerbox><div class = center-text>6 Digits</p></div>","null","test_intro","","","","","","","","","","","","","","",""
"poldrack-multi-stim-multi-response","33","236405","0.0-7.0-4.0","1200","digit-span","true","0","","[-1]","","","stim","","[""<div class = centerbox><div class = digit-span-text>7</div></div>"",""<div class = centerbox><div class = digit-span-text>9</div></div>"",""<div class = centerbox><div class = digit-span-text>6</div></div>"",""<div class = centerbox><div class = digit-span-text>4</div></div>"",""<div class = centerbox><div class = digit-span-text>8</div></div>"",""<div class = centerbox><div class = digit-span-text>3</div></div>""]","[-1]","none","[1000,1000,1000,1000,1000,1000]","7200","0","test","7,9,6,4,8,3","6","","","","",""
"single-stim-button","34","255021","0.0-7.0-5.0","1200","digit-span","true","0","","18611","","","response","","","","","","18611","1000","test","7,9,6,4,8,3","6","SubmitButton","18611","7,9,6,4,8,3","forward","true"
"html-keyboard-response","35","256025","0.0-8.0-0.0","1200","digit-span","true","0","","null","<div class = centerbox><div class = center-text>7 Digits</p></div>","null","test_intro","","","","","","","","","","","","","","",""
"poldrack-multi-stim-multi-response","36","265431","0.0-8.0-1.0","1200","digit-span","true","0","","[-1]","","","stim","","[""<div class = centerbox><div class = digit-span-text>5</div></div>"",""<div class = centerbox><div class = digit-span-text>1</div></div>"",""<div class = centerbox><div class = digit-span-text>7</div></div>"",""<div class = centerbox><div class = digit-span-text>4</div></div>"",""<div class = centerbox><div class = digit-span-text>2</div></div>"",""<div class = centerbox><div class = digit-span-text>3</div></div>"",""<div class = centerbox><div class = digit-span-text>8</div></div>""]","[-1]","none","[1000,1000,1000,1000,1000,1000,1000]","8400","0","test","5,1,7,4,2,3,8","7","","","","",""
"single-stim-button","37","277324","0.0-8.0-2.0","1200","digit-span","true","0","","11887","","","response","","","","","","11887","1000","test","5,1,7,4,2,3,8","7","SubmitButton","11887","5,1,7,4,2,3,8","forward","true"
"html-keyboard-response","38","278329","0.0-8.0-3.0","1200","digit-span","true","0","","null","<div class = centerbox><div class = center-text>7 Digits</p></div>","null","test_intro","","","","","","","","","","","","","","",""
"poldrack-multi-stim-multi-response","39","287759","0.0-8.0-4.0","1200","digit-span","true","0","","[-1]","","","stim","","[""<div class = centerbox><div class = digit-span-text>9</div></div>"",""<div class = centerbox><div class = digit-span-text>8</div></div>"",""<div class = centerbox><div class = digit-span-text>5</div></div>"",""<div class = centerbox><div class = digit-span-text>2</div></div>"",""<div class = centerbox><div class = digit-span-text>1</div></div>"",""<div class = centerbox><div class = digit-span-text>6</div></div>"",""<div class = centerbox><div class = digit-span-text>3</div></div>""]","[-1]","none","[1000,1000,1000,1000,1000,1000,1000]","8400","0","test","9,8,5,2,1,6,3","7","","","","",""
"single-stim-button","40","297456","0.0-8.0-5.0","1200","digit-span","true","0","","9693","","","response","","","","","","9693","1000","test","9,8,5,2,1,6,3","7","SubmitButton","9693","9,8,5,2,1,6,3","forward","true"
"html-keyboard-response","41","298472","0.0-9.0-0.0","1200","digit-span","true","0","","null","<div class = centerbox><div class = center-text>8 Digits</p></div>","null","test_intro","","","","","","","","","","","","","","",""
"poldrack-multi-stim-multi-response","42","309079","0.0-9.0-1.0","1200","digit-span","true","0","","[-1]","","","stim","","[""<div class = centerbox><div class = digit-span-text>1</div></div>"",""<div class = centerbox><div class = digit-span-text>6</div></div>"",""<div class = centerbox><div class = digit-span-text>4</div></div>"",""<div class = centerbox><div class = digit-span-text>5</div></div>"",""<div class = centerbox><div class = digit-span-text>9</div></div>"",""<div class = centerbox><div class = digit-span-text>7</div></div>"",""<div class = centerbox><div class = digit-span-text>6</div></div>"",""<div class = centerbox><div class = digit-span-text>3</div></div>""]","[-1]","none","[1000,1000,1000,1000,1000,1000,1000,1000]","9600","0","test","1,6,4,5,9,7,6,3","8","","","","",""
"single-stim-button","43","325237","0.0-9.0-2.0","1200","digit-span","true","0","","16150","","","response","","","","","","16150","1000","test","1,6,4,5,9,7,6,3","8","SubmitButton","16150","1,6,4,5,9,7,6,3","forward","true"
"html-keyboard-response","44","326243","0.0-9.0-3.0","1200","digit-span","true","0","","null","<div class = centerbox><div class = center-text>8 Digits</p></div>","null","test_intro","","","","","","","","","","","","","","",""
"poldrack-multi-stim-multi-response","45","336849","0.0-9.0-4.0","1200","digit-span","true","0","","[-1]","","","stim","","[""<div class = centerbox><div class = digit-span-text>2</div></div>"",""<div class = centerbox><div class = digit-span-text>9</div></div>"",""<div class = centerbox><div class = digit-span-text>7</div></div>"",""<div class = centerbox><div class = digit-span-text>6</div></div>"",""<div class = centerbox><div class = digit-span-text>3</div></div>"",""<div class = centerbox><div class = digit-span-text>1</div></div>"",""<div class = centerbox><div class = digit-span-text>5</div></div>"",""<div class = centerbox><div class = digit-span-text>4</div></div>""]","[-1]","none","[1000,1000,1000,1000,1000,1000,1000,1000]","9600","0","test","2,9,7,6,3,1,5,4","8","","","","",""
"single-stim-button","46","351731","0.0-9.0-5.0","1200","digit-span","true","0","","14877","","","response","","","","","","14877","1000","test","2,9,7,6,3,1,5,4","8","SubmitButton","14877","2,1,7,6,9","forward","false"
"html-keyboard-response","47","352739","0.0-10.0-0.0","1200","digit-span","true","0","","null","<div class = centerbox><div class = center-text>9 Digits</p></div>","null","test_intro","","","","","","","","","","","","","","",""
"poldrack-multi-stim-multi-response","48","364546","0.0-10.0-1.0","1200","digit-span","true","0","","[-1]","","","stim","","[""<div class = centerbox><div class = digit-span-text>5</div></div>"",""<div class = centerbox><div class = digit-span-text>3</div></div>"",""<div class = centerbox><div class = digit-span-text>8</div></div>"",""<div class = centerbox><div class = digit-span-text>7</div></div>"",""<div class = centerbox><div class = digit-span-text>1</div></div>"",""<div class = centerbox><div class = digit-span-text>2</div></div>"",""<div class = centerbox><div class = digit-span-text>4</div></div>"",""<div class = centerbox><div class = digit-span-text>6</div></div>"",""<div class = centerbox><div class = digit-span-text>9</div></div>""]","[-1]","none","[1000,1000,1000,1000,1000,1000,1000,1000,1000]","10800","0","test","5,3,8,7,1,2,4,6,9","9","","","","",""
"single-stim-button","49","390740","0.0-10.0-2.0","1200","digit-span","true","0","","26186","","","response","","","","","","26186","1000","test","5,3,8,7,1,2,4,6,9","9","SubmitButton","26186","9,3,8,7,5,3,8,1,9","forward","false"
"html-keyboard-response","50","391747","0.0-10.0-3.0","1200","digit-span","true","0","","null","<div class = centerbox><div class = center-text>9 Digits</p></div>","null","test_intro","","","","","","","","","","","","","","",""
"poldrack-multi-stim-multi-response","51","403554","0.0-10.0-4.0","1200","digit-span","true","0","","[-1]","","","stim","","[""<div class = centerbox><div class = digit-span-text>4</div></div>"",""<div class = centerbox><div class = digit-span-text>2</div></div>"",""<div class = centerbox><div class = digit-span-text>6</div></div>"",""<div class = centerbox><div class = digit-span-text>9</div></div>"",""<div class = centerbox><div class = digit-span-text>1</div></div>"",""<div class = centerbox><div class = digit-span-text>7</div></div>"",""<div class = centerbox><div class = digit-span-text>8</div></div>"",""<div class = centerbox><div class = digit-span-text>3</div></div>"",""<div class = centerbox><div class = digit-span-text>5</div></div>""]","[-1]","none","[1000,1000,1000,1000,1000,1000,1000,1000,1000]","10800","0","test","4,2,6,9,1,7,8,3,5","9","","","","",""
"single-stim-button","52","425466","0.0-10.0-5.0","1200","digit-span","true","0","","21907","","","response","","","","","","21907","1000","test","4,2,6,9,1,7,8,3,5","9","SubmitButton","21907","2,4,6,3,8,7,1,9","forward","false"
"html-keyboard-response","53","441877","0.0-11.0","1200","digit-span","true","0","","16404.599999904633","<div class = centerbox><p class = block-text>Now, you will see some numbers, but this time you will enter them <strong>backward</strong>.<br><br>For example, you see <strong>“1—5”</strong>, and you will enter <strong>“5—1”</strong>.<br><br><br>Press <strong>""Enter/Return""</strong> to begin.</p></div>","13","start_reverse","","","","","","","","","","","","","","",""
"html-keyboard-response","54","442882","0.0-12.0-0.0","1200","digit-span","true","0","","null","<div class = centerbox><div class = center-text>2 Digits</p></div>","null","test_intro","","","","","","","","","","","","","","",""
"poldrack-multi-stim-multi-response","55","446289","0.0-12.0-1.0","1200","digit-span","true","0","","[-1]","","","stim","","[""<div class = centerbox><div class = digit-span-text>8</div></div>"",""<div class = centerbox><div class = digit-span-text>2</div></div>""]","[-1]","none","[1000,1000]","2400","0","test","8,2","2","","","","",""
"single-stim-button","56","450041","0.0-12.0-2.0","1200","digit-span","true","0","","3747","","","response","","","","","","3747","1000","test","8,2","2","SubmitButton","3747","2,8","practice","true"
"html-keyboard-response","57","460047","0.0-12.0-3.0","1200","digit-span","true","0","","null","<div class = centerbox><div class = center-block-text><span style=""color:green"">Correct!</span></div></div>","null","feedback","","","","","","","","","","","","","","",""
"html-keyboard-response","58","461051","0.0-12.0-4.0","1200","digit-span","true","0","","null","<div class = centerbox><div class = center-text>2 Digits</p></div>","null","test_intro","","","","","","","","","","","","","","",""
"poldrack-multi-stim-multi-response","59","464459","0.0-12.0-5.0","1200","digit-span","true","0","","[-1]","","","stim","","[""<div class = centerbox><div class = digit-span-text>5</div></div>"",""<div class = centerbox><div class = digit-span-text>6</div></div>""]","[-1]","none","[1000,1000]","2400","0","test","5,6","2","","","","",""
"single-stim-button","60","467617","0.0-12.0-6.0","1200","digit-span","true","0","","3155","","","response","","","","","","3155","1000","test","5,6","2","SubmitButton","3155","6,5","practice","true"
"html-keyboard-response","61","468624","0.0-13.0-0.0","1200","digit-span","true","0","","null","<div class = centerbox><div class = center-text>2 Digits</p></div>","null","test_intro","","","","","","","","","","","","","","",""
"poldrack-multi-stim-multi-response","62","472031","0.0-13.0-1.0","1200","digit-span","true","0","","[-1]","","","stim","","[""<div class = centerbox><div class = digit-span-text>2</div></div>"",""<div class = centerbox><div class = digit-span-text>5</div></div>""]","[-1]","none","[1000,1000]","2400","0","test","2,5","2","","","","",""
"single-stim-button","63","474951","0.0-13.0-2.0","1200","digit-span","true","0","","2916","","","response","","","","","","2916","1000","test","2,5","2","SubmitButton","2916","5,2","reverse","true"
"html-keyboard-response","64","475958","0.0-13.0-3.0","1200","digit-span","true","0","","null","<div class = centerbox><div class = center-text>2 Digits</p></div>","null","test_intro","","","","","","","","","","","","","","",""
"poldrack-multi-stim-multi-response","65","479365","0.0-13.0-4.0","1200","digit-span","true","0","","[-1]","","","stim","","[""<div class = centerbox><div class = digit-span-text>6</div></div>"",""<div class = centerbox><div class = digit-span-text>3</div></div>""]","[-1]","none","[1000,1000]","2400","0","test","6,3","2","","","","",""
"single-stim-button","66","482544","0.0-13.0-5.0","1200","digit-span","true","0","","3175","","","response","","","","","","3175","1000","test","6,3","2","SubmitButton","3175","3,6","reverse","true"
"html-keyboard-response","67","483549","0.0-14.0-0.0","1200","digit-span","true","0","","null","<div class = centerbox><div class = center-text>3 Digits</p></div>","null","test_intro","","","","","","","","","","","","","","",""
"poldrack-multi-stim-multi-response","68","488156","0.0-14.0-1.0","1200","digit-span","true","0","","[-1]","","","stim","","[""<div class = centerbox><div class = digit-span-text>5</div></div>"",""<div class = centerbox><div class = digit-span-text>7</div></div>"",""<div class = centerbox><div class = digit-span-text>4</div></div>""]","[-1]","none","[1000,1000,1000]","3600","0","test","5,7,4","3","","","","",""
"single-stim-button","69","495909","0.0-14.0-2.0","1200","digit-span","true","0","","7749","","","response","","","","","","7749","1000","test","5,7,4","3","SubmitButton","7749","4,7,5","reverse","true"
"html-keyboard-response","70","496915","0.0-14.0-3.0","1200","digit-span","true","0","","null","<div class = centerbox><div class = center-text>3 Digits</p></div>","null","test_intro","","","","","","","","","","","","","","",""
"poldrack-multi-stim-multi-response","71","501523","0.0-14.0-4.0","1200","digit-span","true","0","","[-1]","","","stim","","[""<div class = centerbox><div class = digit-span-text>2</div></div>"",""<div class = centerbox><div class = digit-span-text>5</div></div>"",""<div class = centerbox><div class = digit-span-text>9</div></div>""]","[-1]","none","[1000,1000,1000]","3600","0","test","2,5,9","3","","","","",""
"single-stim-button","72","511349","0.0-14.0-5.0","1200","digit-span","true","0","","9821","","","response","","","","","","9821","1000","test","2,5,9","3","SubmitButton","9821","9,5,2","reverse","true"
"html-keyboard-response","73","512355","0.0-15.0-0.0","1200","digit-span","true","0","","null","<div class = centerbox><div class = center-text>4 Digits</p></div>","null","test_intro","","","","","","","","","","","","","","",""
"poldrack-multi-stim-multi-response","74","518162","0.0-15.0-1.0","1200","digit-span","true","0","","[-1]","","","stim","","[""<div class = centerbox><div class = digit-span-text>7</div></div>"",""<div class = centerbox><div class = digit-span-text>2</div></div>"",""<div class = centerbox><div class = digit-span-text>9</div></div>"",""<div class = centerbox><div class = digit-span-text>6</div></div>""]","[-1]","none","[1000,1000,1000,1000]","4800","0","test","7,2,9,6","4","","","","",""
"single-stim-button","75","535665","0.0-15.0-2.0","1200","digit-span","true","0","","17498","","","response","","","","","","17498","1000","test","7,2,9,6","4","SubmitButton","17498","6,9,2,7","reverse","true"
"html-keyboard-response","76","536670","0.0-15.0-3.0","1200","digit-span","true","0","","null","<div class = centerbox><div class = center-text>4 Digits</p></div>","null","test_intro","","","","","","","","","","","","","","",""
"poldrack-multi-stim-multi-response","77","542478","0.0-15.0-4.0","1200","digit-span","true","0","","[-1]","","","stim","","[""<div class = centerbox><div class = digit-span-text>8</div></div>"",""<div class = centerbox><div class = digit-span-text>4</div></div>"",""<div class = centerbox><div class = digit-span-text>9</div></div>"",""<div class = centerbox><div class = digit-span-text>3</div></div>""]","[-1]","none","[1000,1000,1000,1000]","4800","0","test","8,4,9,3","4","","","","",""
"single-stim-button","78","554694","0.0-15.0-5.0","1200","digit-span","true","0","","12211","","","response","","","","","","12211","1000","test","8,4,9,3","4","SubmitButton","12211","3,9,4,8","reverse","true"
"html-keyboard-response","79","555699","0.0-16.0-0.0","1200","digit-span","true","0","","null","<div class = centerbox><div class = center-text>5 Digits</p></div>","null","test_intro","","","","","","","","","","","","","","",""
"poldrack-multi-stim-multi-response","80","562708","0.0-16.0-1.0","1200","digit-span","true","0","","[-1]","","","stim","","[""<div class = centerbox><div class = digit-span-text>4</div></div>"",""<div class = centerbox><div class = digit-span-text>1</div></div>"",""<div class = centerbox><div class = digit-span-text>3</div></div>"",""<div class = centerbox><div class = digit-span-text>5</div></div>"",""<div class = centerbox><div class = digit-span-text>7</div></div>""]","[-1]","none","[1000,1000,1000,1000,1000]","6000","0","test","4,1,3,5,7","5","","","","",""
"single-stim-button","81","579915","0.0-16.0-2.0","1200","digit-span","true","0","","17202","","","response","","","","","","17202","1000","test","4,1,3,5,7","5","SubmitButton","17202","7,5,3,1,4","reverse","true"
"html-keyboard-response","82","580922","0.0-16.0-3.0","1200","digit-span","true","0","","null","<div class = centerbox><div class = center-text>5 Digits</p></div>","null","test_intro","","","","","","","","","","","","","","",""
"poldrack-multi-stim-multi-response","83","587928","0.0-16.0-4.0","1200","digit-span","true","0","","[-1]","","","stim","","[""<div class = centerbox><div class = digit-span-text>9</div></div>"",""<div class = centerbox><div class = digit-span-text>7</div></div>"",""<div class = centerbox><div class = digit-span-text>8</div></div>"",""<div class = centerbox><div class = digit-span-text>5</div></div>"",""<div class = centerbox><div class = digit-span-text>2</div></div>""]","[-1]","none","[1000,1000,1000,1000,1000]","6000","0","test","9,7,8,5,2","5","","","","",""
"single-stim-button","84","600485","0.0-16.0-5.0","1200","digit-span","true","0","","12553","","","response","","","","","","12553","1000","test","9,7,8,5,2","5","SubmitButton","12553","2,5,8,7,9","reverse","true"
"html-keyboard-response","85","601490","0.0-17.0-0.0","1200","digit-span","true","0","","null","<div class = centerbox><div class = center-text>6 Digits</p></div>","null","test_intro","","","","","","","","","","","","","","",""
"poldrack-multi-stim-multi-response","86","609697","0.0-17.0-1.0","1200","digit-span","true","0","","[-1]","","","stim","","[""<div class = centerbox><div class = digit-span-text>1</div></div>"",""<div class = centerbox><div class = digit-span-text>6</div></div>"",""<div class = centerbox><div class = digit-span-text>5</div></div>"",""<div class = centerbox><div class = digit-span-text>2</div></div>"",""<div class = centerbox><div class = digit-span-text>9</div></div>"",""<div class = centerbox><div class = digit-span-text>8</div></div>""]","[-1]","none","[1000,1000,1000,1000,1000,1000]","7200","0","test","1,6,5,2,9,8","6","","","","",""
"single-stim-button","87","639780","0.0-17.0-2.0","1200","digit-span","true","0","","30078","","","response","","","","","","30078","1000","test","1,6,5,2,9,8","6","SubmitButton","30078","8,2,5,9,6,1","reverse","false"
"html-keyboard-response","88","640786","0.0-17.0-3.0","1200","digit-span","true","0","","null","<div class = centerbox><div class = center-text>6 Digits</p></div>","null","test_intro","","","","","","","","","","","","","","",""
"poldrack-multi-stim-multi-response","89","648992","0.0-17.0-4.0","1200","digit-span","true","0","","[-1]","","","stim","","[""<div class = centerbox><div class = digit-span-text>3</div></div>"",""<div class = centerbox><div class = digit-span-text>6</div></div>"",""<div class = centerbox><div class = digit-span-text>7</div></div>"",""<div class = centerbox><div class = digit-span-text>1</div></div>"",""<div class = centerbox><div class = digit-span-text>9</div></div>"",""<div class = centerbox><div class = digit-span-text>4</div></div>""]","[-1]","none","[1000,1000,1000,1000,1000,1000]","7200","0","test","3,6,7,1,9,4","6","","","","",""
"single-stim-button","90","680037","0.0-17.0-5.0","1200","digit-span","true","0","","31041","","","response","","","","","","31041","1000","test","3,6,7,1,9,4","6","SubmitButton","31041","3,6,7,4,1,6,5","reverse","false"
"image-keyboard-response","91","682368","0.0-20.0","1200","digit-span","true","0","","2322.399999856949","img/trophy2.jpeg","13","end","","","","","","","","","","","","","","",""
