"trial_type","trial_index","time_elapsed","internal_node_id","subject","order","exp_id","full_screen","focus_shifts","success","rt","stimulus","key_press","trial_id","view_history","stimuli","key_presses","possible_responses","stim_durations","block_duration","timing_post_trial","exp_stage","sequence","num_digits","mouse_click","stim_duration","response","condition","correct"
"pavlovia","0","3109","0.0-0.0","1322","2","digit-span","true","0","","","","","","","","","","","","","","","","","","","",""
"fullscreen","1","10263","0.0-1.0","1322","2","digit-span","true","0","true","","","","","","","","","","","","","","","","","","",""
"html-keyboard-response","2","15202","0.0-2.0-0.0","1322","2","digit-span","true","0","","4936.199999928474","<div class = centerbox><p class = center-block-text>Welcome to the number game! It will take less than 5 minutes. Press <strong>""Enter/Return""</strong> to begin.</p></div>","13","instruction","","","","","","","","","","","","","","",""
"instructions","3","34154","0.0-2.0-1.0","1322","2","digit-span","true","0","","18951.600000023842","","","instruction","[{""page_index"":0,""viewing_time"":18951.400000095367}]","","","","","","","","","","","","","",""
"instructions","4","40729","0.0-2.0-2.0","1322","2","digit-span","true","0","","5574.399999976158","","","instruction","[{""page_index"":0,""viewing_time"":5574.200000047684}]","","","","","","","","","","","","","",""
"html-keyboard-response","5","42736","0.0-3.0-0.0","1322","2","digit-span","true","0","","null","<div class = centerbox><div class = center-text>2 Digits</p></div>","null","test_intro","","","","","","","","","","","","","","",""
"poldrack-multi-stim-multi-response","6","46144","0.0-3.0-1.0","1322","2","digit-span","true","0","","[-1]","","","stim","","[""<div class = centerbox><div class = digit-span-text>2</div></div>"",""<div class = centerbox><div class = digit-span-text>9</div></div>""]","[-1]","none","[1000,1000]","2400","0","test","2,9","2","","","","",""
"single-stim-button","7","54235","0.0-3.0-2.0","1322","2","digit-span","true","0","","8089","","","response","","","","","","8089","1000","test","2,9","2","SubmitButton","8089","2,9","forward","true"
"html-keyboard-response","8","55240","0.0-3.0-3.0","1322","2","digit-span","true","0","","null","<div class = centerbox><div class = center-text>2 Digits</p></div>","null","test_intro","","","","","","","","","","","","","","",""
"poldrack-multi-stim-multi-response","9","58643","0.0-3.0-4.0","1322","2","digit-span","true","0","","[-1]","","","stim","","[""<div class = centerbox><div class = digit-span-text>4</div></div>"",""<div class = centerbox><div class = digit-span-text>6</div></div>""]","[-1]","none","[1000,1000]","2400","0","test","4,6","2","","","","",""
"single-stim-button","10","92994","0.0-3.0-5.0","1322","2","digit-span","true","0","","34349","","","response","","","","","","34349","1000","test","4,6","2","SubmitButton","34349","4,6","forward","true"
"html-keyboard-response","11","93996","0.0-4.0-0.0","1322","2","digit-span","true","0","","null","<div class = centerbox><div class = center-text>3 Digits</p></div>","null","test_intro","","","","","","","","","","","","","","",""
"poldrack-multi-stim-multi-response","12","98599","0.0-4.0-1.0","1322","2","digit-span","true","0","","[-1]","","","stim","","[""<div class = centerbox><div class = digit-span-text>3</div></div>"",""<div class = centerbox><div class = digit-span-text>8</div></div>"",""<div class = centerbox><div class = digit-span-text>6</div></div>""]","[-1]","none","[1000,1000,1000]","3600","0","test","3,8,6","3","","","","",""
"single-stim-button","13","104073","0.0-4.0-2.0","1322","2","digit-span","true","0","","5473","","","response","","","","","","5473","1000","test","3,8,6","3","SubmitButton","5473","3,8,6","forward","true"
"html-keyboard-response","14","105075","0.0-4.0-3.0","1322","2","digit-span","true","0","","null","<div class = centerbox><div class = center-text>3 Digits</p></div>","null","test_intro","","","","","","","","","","","","","","",""
"poldrack-multi-stim-multi-response","15","109680","0.0-4.0-4.0","1322","2","digit-span","true","0","","[-1]","","","stim","","[""<div class = centerbox><div class = digit-span-text>6</div></div>"",""<div class = centerbox><div class = digit-span-text>1</div></div>"",""<div class = centerbox><div class = digit-span-text>2</div></div>""]","[-1]","none","[1000,1000,1000]","3600","0","test","6,1,2","3","","","","",""
"single-stim-button","16","114041","0.0-4.0-5.0","1322","2","digit-span","true","0","","4360","","","response","","","","","","4360","1000","test","6,1,2","3","SubmitButton","4360","6,1,2","forward","true"
"html-keyboard-response","17","115043","0.0-5.0-0.0","1322","2","digit-span","true","0","","null","<div class = centerbox><div class = center-text>4 Digits</p></div>","null","test_intro","","","","","","","","","","","","","","",""
"poldrack-multi-stim-multi-response","18","120848","0.0-5.0-1.0","1322","2","digit-span","true","0","","[-1]","","","stim","","[""<div class = centerbox><div class = digit-span-text>3</div></div>"",""<div class = centerbox><div class = digit-span-text>4</div></div>"",""<div class = centerbox><div class = digit-span-text>1</div></div>"",""<div class = centerbox><div class = digit-span-text>7</div></div>""]","[-1]","none","[1000,1000,1000,1000]","4800","0","test","3,4,1,7","4","","","","",""
"single-stim-button","19","126306","0.0-5.0-2.0","1322","2","digit-span","true","0","","5457","","","response","","","","","","5457","1000","test","3,4,1,7","4","SubmitButton","5457","3,4,1,7","forward","true"
"html-keyboard-response","20","127308","0.0-5.0-3.0","1322","2","digit-span","true","0","","null","<div class = centerbox><div class = center-text>4 Digits</p></div>","null","test_intro","","","","","","","","","","","","","","",""
"poldrack-multi-stim-multi-response","21","133113","0.0-5.0-4.0","1322","2","digit-span","true","0","","[-1]","","","stim","","[""<div class = centerbox><div class = digit-span-text>6</div></div>"",""<div class = centerbox><div class = digit-span-text>1</div></div>"",""<div class = centerbox><div class = digit-span-text>5</div></div>"",""<div class = centerbox><div class = digit-span-text>8</div></div>""]","[-1]","none","[1000,1000,1000,1000]","4800","0","test","6,1,5,8","4","","","","",""
"single-stim-button","22","137586","0.0-5.0-5.0","1322","2","digit-span","true","0","","4473","","","response","","","","","","4473","1000","test","6,1,5,8","4","SubmitButton","4473","6,1,5,8","forward","true"
"html-keyboard-response","23","138588","0.0-6.0-0.0","1322","2","digit-span","true","0","","null","<div class = centerbox><div class = center-text>5 Digits</p></div>","null","test_intro","","","","","","","","","","","","","","",""
"poldrack-multi-stim-multi-response","24","145593","0.0-6.0-1.0","1322","2","digit-span","true","0","","[-1]","","","stim","","[""<div class = centerbox><div class = digit-span-text>8</div></div>"",""<div class = centerbox><div class = digit-span-text>4</div></div>"",""<div class = centerbox><div class = digit-span-text>2</div></div>"",""<div class = centerbox><div class = digit-span-text>3</div></div>"",""<div class = centerbox><div class = digit-span-text>9</div></div>""]","[-1]","none","[1000,1000,1000,1000,1000]","6000","0","test","8,4,2,3,9","5","","","","",""
"single-stim-button","25","151874","0.0-6.0-2.0","1322","2","digit-span","true","0","","6280","","","response","","","","","","6280","1000","test","8,4,2,3,9","5","SubmitButton","6280","8,4,2,3,9","forward","true"
"html-keyboard-response","26","152876","0.0-6.0-3.0","1322","2","digit-span","true","0","","null","<div class = centerbox><div class = center-text>5 Digits</p></div>","null","test_intro","","","","","","","","","","","","","","",""
"poldrack-multi-stim-multi-response","27","159881","0.0-6.0-4.0","1322","2","digit-span","true","0","","[-1]","","","stim","","[""<div class = centerbox><div class = digit-span-text>5</div></div>"",""<div class = centerbox><div class = digit-span-text>2</div></div>"",""<div class = centerbox><div class = digit-span-text>1</div></div>"",""<div class = centerbox><div class = digit-span-text>8</div></div>"",""<div class = centerbox><div class = digit-span-text>6</div></div>""]","[-1]","none","[1000,1000,1000,1000,1000]","6000","0","test","5,2,1,8,6","5","","","","",""
"single-stim-button","28","173442","0.0-6.0-5.0","1322","2","digit-span","true","0","","13559","","","response","","","","","","13559","1000","test","5,2,1,8,6","5","SubmitButton","13559","5,2,1,8,6","forward","true"
"html-keyboard-response","29","174443","0.0-7.0-0.0","1322","2","digit-span","true","0","","null","<div class = centerbox><div class = center-text>6 Digits</p></div>","null","test_intro","","","","","","","","","","","","","","",""
"poldrack-multi-stim-multi-response","30","182646","0.0-7.0-1.0","1322","2","digit-span","true","0","","[-1]","","","stim","","[""<div class = centerbox><div class = digit-span-text>3</div></div>"",""<div class = centerbox><div class = digit-span-text>8</div></div>"",""<div class = centerbox><div class = digit-span-text>9</div></div>"",""<div class = centerbox><div class = digit-span-text>1</div></div>"",""<div class = centerbox><div class = digit-span-text>7</div></div>"",""<div class = centerbox><div class = digit-span-text>4</div></div>""]","[-1]","none","[1000,1000,1000,1000,1000,1000]","7200","0","test","3,8,9,1,7,4","6","","","","",""
"single-stim-button","31","190938","0.0-7.0-2.0","1322","2","digit-span","true","0","","8290","","","response","","","","","","8290","1000","test","3,8,9,1,7,4","6","SubmitButton","8290","3,8,9,1,7,4","forward","true"
"html-keyboard-response","32","191940","0.0-7.0-3.0","1322","2","digit-span","true","0","","null","<div class = centerbox><div class = center-text>6 Digits</p></div>","null","test_intro","","","","","","","","","","","","","","",""
"poldrack-multi-stim-multi-response","33","200144","0.0-7.0-4.0","1322","2","digit-span","true","0","","[-1]","","","stim","","[""<div class = centerbox><div class = digit-span-text>7</div></div>"",""<div class = centerbox><div class = digit-span-text>9</div></div>"",""<div class = centerbox><div class = digit-span-text>6</div></div>"",""<div class = centerbox><div class = digit-span-text>4</div></div>"",""<div class = centerbox><div class = digit-span-text>8</div></div>"",""<div class = centerbox><div class = digit-span-text>3</div></div>""]","[-1]","none","[1000,1000,1000,1000,1000,1000]","7200","0","test","7,9,6,4,8,3","6","","","","",""
"single-stim-button","34","207146","0.0-7.0-5.0","1322","2","digit-span","true","0","","7000","","","response","","","","","","7000","1000","test","7,9,6,4,8,3","6","SubmitButton","7000","7,9,6,4,8,3","forward","true"
"html-keyboard-response","35","208148","0.0-8.0-0.0","1322","2","digit-span","true","0","","null","<div class = centerbox><div class = center-text>7 Digits</p></div>","null","test_intro","","","","","","","","","","","","","","",""
"poldrack-multi-stim-multi-response","36","217554","0.0-8.0-1.0","1322","2","digit-span","true","0","","[-1]","","","stim","","[""<div class = centerbox><div class = digit-span-text>5</div></div>"",""<div class = centerbox><div class = digit-span-text>1</div></div>"",""<div class = centerbox><div class = digit-span-text>7</div></div>"",""<div class = centerbox><div class = digit-span-text>4</div></div>"",""<div class = centerbox><div class = digit-span-text>2</div></div>"",""<div class = centerbox><div class = digit-span-text>3</div></div>"",""<div class = centerbox><div class = digit-span-text>8</div></div>""]","[-1]","none","[1000,1000,1000,1000,1000,1000,1000]","8400","0","test","5,1,7,4,2,3,8","7","","","","",""
"single-stim-button","37","237746","0.0-8.0-2.0","1322","2","digit-span","true","0","","20191","","","response","","","","","","20191","1000","test","5,1,7,4,2,3,8","7","SubmitButton","20191","5,1,7,4,2,3,8","forward","true"
"html-keyboard-response","38","238748","0.0-8.0-3.0","1322","2","digit-span","true","0","","null","<div class = centerbox><div class = center-text>7 Digits</p></div>","null","test_intro","","","","","","","","","","","","","","",""
"poldrack-multi-stim-multi-response","39","248152","0.0-8.0-4.0","1322","2","digit-span","true","0","","[-1]","","","stim","","[""<div class = centerbox><div class = digit-span-text>9</div></div>"",""<div class = centerbox><div class = digit-span-text>8</div></div>"",""<div class = centerbox><div class = digit-span-text>5</div></div>"",""<div class = centerbox><div class = digit-span-text>2</div></div>"",""<div class = centerbox><div class = digit-span-text>1</div></div>"",""<div class = centerbox><div class = digit-span-text>6</div></div>"",""<div class = centerbox><div class = digit-span-text>3</div></div>""]","[-1]","none","[1000,1000,1000,1000,1000,1000,1000]","8400","0","test","9,8,5,2,1,6,3","7","","","","",""
"single-stim-button","40","269562","0.0-8.0-5.0","1322","2","digit-span","true","0","","21408","","","response","","","","","","21408","1000","test","9,8,5,2,1,6,3","7","SubmitButton","21408","6,8,5,2,1,6,3","forward","false"
"html-keyboard-response","41","270575","0.0-9.0-0.0","1322","2","digit-span","true","0","","null","<div class = centerbox><div class = center-text>8 Digits</p></div>","null","test_intro","","","","","","","","","","","","","","",""
"poldrack-multi-stim-multi-response","42","281179","0.0-9.0-1.0","1322","2","digit-span","true","0","","[-1]","","","stim","","[""<div class = centerbox><div class = digit-span-text>1</div></div>"",""<div class = centerbox><div class = digit-span-text>6</div></div>"",""<div class = centerbox><div class = digit-span-text>4</div></div>"",""<div class = centerbox><div class = digit-span-text>5</div></div>"",""<div class = centerbox><div class = digit-span-text>9</div></div>"",""<div class = centerbox><div class = digit-span-text>7</div></div>"",""<div class = centerbox><div class = digit-span-text>6</div></div>"",""<div class = centerbox><div class = digit-span-text>3</div></div>""]","[-1]","none","[1000,1000,1000,1000,1000,1000,1000,1000]","9600","0","test","1,6,4,5,9,7,6,3","8","","","","",""
"single-stim-button","43","294289","0.0-9.0-2.0","1322","2","digit-span","true","0","","13109","","","response","","","","","","13109","1000","test","1,6,4,5,9,7,6,3","8","SubmitButton","13109","1,9,4,7,6,8,3","forward","false"
"html-keyboard-response","44","295291","0.0-9.0-3.0","1322","2","digit-span","true","0","","null","<div class = centerbox><div class = center-text>8 Digits</p></div>","null","test_intro","","","","","","","","","","","","","","",""
"poldrack-multi-stim-multi-response","45","305896","0.0-9.0-4.0","1322","2","digit-span","true","0","","[-1]","","","stim","","[""<div class = centerbox><div class = digit-span-text>2</div></div>"",""<div class = centerbox><div class = digit-span-text>9</div></div>"",""<div class = centerbox><div class = digit-span-text>7</div></div>"",""<div class = centerbox><div class = digit-span-text>6</div></div>"",""<div class = centerbox><div class = digit-span-text>3</div></div>"",""<div class = centerbox><div class = digit-span-text>1</div></div>"",""<div class = centerbox><div class = digit-span-text>5</div></div>"",""<div class = centerbox><div class = digit-span-text>4</div></div>""]","[-1]","none","[1000,1000,1000,1000,1000,1000,1000,1000]","9600","0","test","2,9,7,6,3,1,5,4","8","","","","",""
"single-stim-button","46","322098","0.0-9.0-5.0","1322","2","digit-span","true","0","","16200","","","response","","","","","","16200","1000","test","2,9,7,6,3,1,5,4","8","SubmitButton","16200","2,9,7,6,3,1,5,4","forward","true"
"html-keyboard-response","47","323101","0.0-10.0-0.0","1322","2","digit-span","true","0","","null","<div class = centerbox><div class = center-text>9 Digits</p></div>","null","test_intro","","","","","","","","","","","","","","",""
"poldrack-multi-stim-multi-response","48","334905","0.0-10.0-1.0","1322","2","digit-span","true","0","","[-1]","","","stim","","[""<div class = centerbox><div class = digit-span-text>5</div></div>"",""<div class = centerbox><div class = digit-span-text>3</div></div>"",""<div class = centerbox><div class = digit-span-text>8</div></div>"",""<div class = centerbox><div class = digit-span-text>7</div></div>"",""<div class = centerbox><div class = digit-span-text>1</div></div>"",""<div class = centerbox><div class = digit-span-text>2</div></div>"",""<div class = centerbox><div class = digit-span-text>4</div></div>"",""<div class = centerbox><div class = digit-span-text>6</div></div>"",""<div class = centerbox><div class = digit-span-text>9</div></div>""]","[-1]","none","[1000,1000,1000,1000,1000,1000,1000,1000,1000]","10800","0","test","5,3,8,7,1,2,4,6,9","9","","","","",""
"single-stim-button","49","352562","0.0-10.0-2.0","1322","2","digit-span","true","0","","17655","","","response","","","","","","17655","1000","test","5,3,8,7,1,2,4,6,9","9","SubmitButton","17655","5,3,8,7,1,2,4,6,9","forward","true"
"html-keyboard-response","50","353563","0.0-10.0-3.0","1322","2","digit-span","true","0","","null","<div class = centerbox><div class = center-text>9 Digits</p></div>","null","test_intro","","","","","","","","","","","","","","",""
"poldrack-multi-stim-multi-response","51","365368","0.0-10.0-4.0","1322","2","digit-span","true","0","","[-1]","","","stim","","[""<div class = centerbox><div class = digit-span-text>4</div></div>"",""<div class = centerbox><div class = digit-span-text>2</div></div>"",""<div class = centerbox><div class = digit-span-text>6</div></div>"",""<div class = centerbox><div class = digit-span-text>9</div></div>"",""<div class = centerbox><div class = digit-span-text>1</div></div>"",""<div class = centerbox><div class = digit-span-text>7</div></div>"",""<div class = centerbox><div class = digit-span-text>8</div></div>"",""<div class = centerbox><div class = digit-span-text>3</div></div>"",""<div class = centerbox><div class = digit-span-text>5</div></div>""]","[-1]","none","[1000,1000,1000,1000,1000,1000,1000,1000,1000]","10800","0","test","4,2,6,9,1,7,8,3,5","9","","","","",""
"single-stim-button","52","379514","0.0-10.0-5.0","1322","2","digit-span","true","0","","14145","","","response","","","","","","14145","1000","test","4,2,6,9,1,7,8,3,5","9","SubmitButton","14145","4,2,6,9,1,7,8,3,5","forward","true"
"html-keyboard-response","53","402731","0.0-11.0","1322","2","digit-span","true","0","","23215.700000047684","<div class = centerbox><p class = block-text>Now, you will see some numbers, but this time you will enter them <strong>backward</strong>.<br><br>For example, you see <strong>“1—5”</strong>, and you will enter <strong>“5—1”</strong>.<br><br><br>Press <strong>""Enter/Return""</strong> to begin.</p></div>","13","start_reverse","","","","","","","","","","","","","","",""
"html-keyboard-response","54","403732","0.0-12.0-0.0","1322","2","digit-span","true","0","","null","<div class = centerbox><div class = center-text>2 Digits</p></div>","null","test_intro","","","","","","","","","","","","","","",""
"poldrack-multi-stim-multi-response","55","407136","0.0-12.0-1.0","1322","2","digit-span","true","0","","[-1]","","","stim","","[""<div class = centerbox><div class = digit-span-text>8</div></div>"",""<div class = centerbox><div class = digit-span-text>2</div></div>""]","[-1]","none","[1000,1000]","2400","0","test","8,2","2","","","","",""
"single-stim-button","56","411195","0.0-12.0-2.0","1322","2","digit-span","true","0","","4057","","","response","","","","","","4057","1000","test","8,2","2","SubmitButton","4057","2,8","practice","true"
"html-keyboard-response","57","421196","0.0-12.0-3.0","1322","2","digit-span","true","0","","null","<div class = centerbox><div class = center-block-text><span style=""color:green"">Correct!</span></div></div>","null","feedback","","","","","","","","","","","","","","",""
"html-keyboard-response","58","422199","0.0-12.0-4.0","1322","2","digit-span","true","0","","null","<div class = centerbox><div class = center-text>2 Digits</p></div>","null","test_intro","","","","","","","","","","","","","","",""
"poldrack-multi-stim-multi-response","59","425603","0.0-12.0-5.0","1322","2","digit-span","true","0","","[-1]","","","stim","","[""<div class = centerbox><div class = digit-span-text>5</div></div>"",""<div class = centerbox><div class = digit-span-text>6</div></div>""]","[-1]","none","[1000,1000]","2400","0","test","5,6","2","","","","",""
"single-stim-button","60","428682","0.0-12.0-6.0","1322","2","digit-span","true","0","","3078","","","response","","","","","","3078","1000","test","5,6","2","SubmitButton","3078","6,5","practice","true"
"html-keyboard-response","61","429684","0.0-13.0-0.0","1322","2","digit-span","true","0","","null","<div class = centerbox><div class = center-text>2 Digits</p></div>","null","test_intro","","","","","","","","","","","","","","",""
"poldrack-multi-stim-multi-response","62","433088","0.0-13.0-1.0","1322","2","digit-span","true","0","","[-1]","","","stim","","[""<div class = centerbox><div class = digit-span-text>2</div></div>"",""<div class = centerbox><div class = digit-span-text>5</div></div>""]","[-1]","none","[1000,1000]","2400","0","test","2,5","2","","","","",""
"single-stim-button","63","446930","0.0-13.0-2.0","1322","2","digit-span","true","0","","13842","","","response","","","","","","13842","1000","test","2,5","2","SubmitButton","13842","5,2","reverse","true"
"html-keyboard-response","64","447932","0.0-13.0-3.0","1322","2","digit-span","true","0","","null","<div class = centerbox><div class = center-text>2 Digits</p></div>","null","test_intro","","","","","","","","","","","","","","",""
"poldrack-multi-stim-multi-response","65","451336","0.0-13.0-4.0","1322","2","digit-span","true","0","","[-1]","","","stim","","[""<div class = centerbox><div class = digit-span-text>6</div></div>"",""<div class = centerbox><div class = digit-span-text>3</div></div>""]","[-1]","none","[1000,1000]","2400","0","test","6,3","2","","","","",""
"single-stim-button","66","454362","0.0-13.0-5.0","1322","2","digit-span","true","0","","3025","","","response","","","","","","3025","1000","test","6,3","2","SubmitButton","3025","3,6","reverse","true"
"html-keyboard-response","67","455364","0.0-14.0-0.0","1322","2","digit-span","true","0","","null","<div class = centerbox><div class = center-text>3 Digits</p></div>","null","test_intro","","","","","","","","","","","","","","",""
"poldrack-multi-stim-multi-response","68","459967","0.0-14.0-1.0","1322","2","digit-span","true","0","","[-1]","","","stim","","[""<div class = centerbox><div class = digit-span-text>5</div></div>"",""<div class = centerbox><div class = digit-span-text>7</div></div>"",""<div class = centerbox><div class = digit-span-text>4</div></div>""]","[-1]","none","[1000,1000,1000]","3600","0","test","5,7,4","3","","","","",""
"single-stim-button","69","468946","0.0-14.0-2.0","1322","2","digit-span","true","0","","8978","","","response","","","","","","8978","1000","test","5,7,4","3","SubmitButton","8978","4,7,5","reverse","true"
"html-keyboard-response","70","469948","0.0-14.0-3.0","1322","2","digit-span","true","0","","null","<div class = centerbox><div class = center-text>3 Digits</p></div>","null","test_intro","","","","","","","","","","","","","","",""
"poldrack-multi-stim-multi-response","71","474551","0.0-14.0-4.0","1322","2","digit-span","true","0","","[-1]","","","stim","","[""<div class = centerbox><div class = digit-span-text>2</div></div>"",""<div class = centerbox><div class = digit-span-text>5</div></div>"",""<div class = centerbox><div class = digit-span-text>9</div></div>""]","[-1]","none","[1000,1000,1000]","3600","0","test","2,5,9","3","","","","",""
"single-stim-button","72","486291","0.0-14.0-5.0","1322","2","digit-span","true","0","","11738","","","response","","","","","","11738","1000","test","2,5,9","3","SubmitButton","11738","9,5,2","reverse","true"
"html-keyboard-response","73","487292","0.0-15.0-0.0","1322","2","digit-span","true","0","","null","<div class = centerbox><div class = center-text>4 Digits</p></div>","null","test_intro","","","","","","","","","","","","","","",""
"poldrack-multi-stim-multi-response","74","493096","0.0-15.0-1.0","1322","2","digit-span","true","0","","[-1]","","","stim","","[""<div class = centerbox><div class = digit-span-text>7</div></div>"",""<div class = centerbox><div class = digit-span-text>2</div></div>"",""<div class = centerbox><div class = digit-span-text>9</div></div>"",""<div class = centerbox><div class = digit-span-text>6</div></div>""]","[-1]","none","[1000,1000,1000,1000]","4800","0","test","7,2,9,6","4","","","","",""
"single-stim-button","75","506394","0.0-15.0-2.0","1322","2","digit-span","true","0","","13297","","","response","","","","","","13297","1000","test","7,2,9,6","4","SubmitButton","13297","6,9,2,7","reverse","true"
"html-keyboard-response","76","507398","0.0-15.0-3.0","1322","2","digit-span","true","0","","null","<div class = centerbox><div class = center-text>4 Digits</p></div>","null","test_intro","","","","","","","","","","","","","","",""
"poldrack-multi-stim-multi-response","77","513203","0.0-15.0-4.0","1322","2","digit-span","true","0","","[-1]","","","stim","","[""<div class = centerbox><div class = digit-span-text>8</div></div>"",""<div class = centerbox><div class = digit-span-text>4</div></div>"",""<div class = centerbox><div class = digit-span-text>9</div></div>"",""<div class = centerbox><div class = digit-span-text>3</div></div>""]","[-1]","none","[1000,1000,1000,1000]","4800","0","test","8,4,9,3","4","","","","",""
"single-stim-button","78","522962","0.0-15.0-5.0","1322","2","digit-span","true","0","","9759","","","response","","","","","","9759","1000","test","8,4,9,3","4","SubmitButton","9759","3,9,4,8","reverse","true"
"html-keyboard-response","79","523964","0.0-16.0-0.0","1322","2","digit-span","true","0","","null","<div class = centerbox><div class = center-text>5 Digits</p></div>","null","test_intro","","","","","","","","","","","","","","",""
"poldrack-multi-stim-multi-response","80","530969","0.0-16.0-1.0","1322","2","digit-span","true","0","","[-1]","","","stim","","[""<div class = centerbox><div class = digit-span-text>4</div></div>"",""<div class = centerbox><div class = digit-span-text>1</div></div>"",""<div class = centerbox><div class = digit-span-text>3</div></div>"",""<div class = centerbox><div class = digit-span-text>5</div></div>"",""<div class = centerbox><div class = digit-span-text>7</div></div>""]","[-1]","none","[1000,1000,1000,1000,1000]","6000","0","test","4,1,3,5,7","5","","","","",""
"single-stim-button","81","550035","0.0-16.0-2.0","1322","2","digit-span","true","0","","19065","","","response","","","","","","19065","1000","test","4,1,3,5,7","5","SubmitButton","19065","7,5,3,1,4","reverse","true"
"html-keyboard-response","82","551036","0.0-16.0-3.0","1322","2","digit-span","true","0","","null","<div class = centerbox><div class = center-text>5 Digits</p></div>","null","test_intro","","","","","","","","","","","","","","",""
"poldrack-multi-stim-multi-response","83","558041","0.0-16.0-4.0","1322","2","digit-span","true","0","","[-1]","","","stim","","[""<div class = centerbox><div class = digit-span-text>9</div></div>"",""<div class = centerbox><div class = digit-span-text>7</div></div>"",""<div class = centerbox><div class = digit-span-text>8</div></div>"",""<div class = centerbox><div class = digit-span-text>5</div></div>"",""<div class = centerbox><div class = digit-span-text>2</div></div>""]","[-1]","none","[1000,1000,1000,1000,1000]","6000","0","test","9,7,8,5,2","5","","","","",""
"single-stim-button","84","569619","0.0-16.0-5.0","1322","2","digit-span","true","0","","11576","","","response","","","","","","11576","1000","test","9,7,8,5,2","5","SubmitButton","11576","2,5,8,7,9","reverse","true"
"html-keyboard-response","85","570621","0.0-17.0-0.0","1322","2","digit-span","true","0","","null","<div class = centerbox><div class = center-text>6 Digits</p></div>","null","test_intro","","","","","","","","","","","","","","",""
"poldrack-multi-stim-multi-response","86","578826","0.0-17.0-1.0","1322","2","digit-span","true","0","","[-1]","","","stim","","[""<div class = centerbox><div class = digit-span-text>1</div></div>"",""<div class = centerbox><div class = digit-span-text>6</div></div>"",""<div class = centerbox><div class = digit-span-text>5</div></div>"",""<div class = centerbox><div class = digit-span-text>2</div></div>"",""<div class = centerbox><div class = digit-span-text>9</div></div>"",""<div class = centerbox><div class = digit-span-text>8</div></div>""]","[-1]","none","[1000,1000,1000,1000,1000,1000]","7200","0","test","1,6,5,2,9,8","6","","","","",""
"single-stim-button","87","591907","0.0-17.0-2.0","1322","2","digit-span","true","0","","13079","","","response","","","","","","13079","1000","test","1,6,5,2,9,8","6","SubmitButton","13079","8,9,2,5,6,1","reverse","true"
"html-keyboard-response","88","592908","0.0-17.0-3.0","1322","2","digit-span","true","0","","null","<div class = centerbox><div class = center-text>6 Digits</p></div>","null","test_intro","","","","","","","","","","","","","","",""
"poldrack-multi-stim-multi-response","89","601113","0.0-17.0-4.0","1322","2","digit-span","true","0","","[-1]","","","stim","","[""<div class = centerbox><div class = digit-span-text>3</div></div>"",""<div class = centerbox><div class = digit-span-text>6</div></div>"",""<div class = centerbox><div class = digit-span-text>7</div></div>"",""<div class = centerbox><div class = digit-span-text>1</div></div>"",""<div class = centerbox><div class = digit-span-text>9</div></div>"",""<div class = centerbox><div class = digit-span-text>4</div></div>""]","[-1]","none","[1000,1000,1000,1000,1000,1000]","7200","0","test","3,6,7,1,9,4","6","","","","",""
"single-stim-button","90","620739","0.0-17.0-5.0","1322","2","digit-span","true","0","","19625","","","response","","","","","","19625","1000","test","3,6,7,1,9,4","6","SubmitButton","19625","4,9,1,7,6,3","reverse","true"
"html-keyboard-response","91","621741","0.0-18.0-0.0","1322","2","digit-span","true","0","","null","<div class = centerbox><div class = center-text>7 Digits</p></div>","null","test_intro","","","","","","","","","","","","","","",""
"poldrack-multi-stim-multi-response","92","631144","0.0-18.0-1.0","1322","2","digit-span","true","0","","[-1]","","","stim","","[""<div class = centerbox><div class = digit-span-text>8</div></div>"",""<div class = centerbox><div class = digit-span-text>5</div></div>"",""<div class = centerbox><div class = digit-span-text>9</div></div>"",""<div class = centerbox><div class = digit-span-text>2</div></div>"",""<div class = centerbox><div class = digit-span-text>3</div></div>"",""<div class = centerbox><div class = digit-span-text>4</div></div>"",""<div class = centerbox><div class = digit-span-text>2</div></div>""]","[-1]","none","[1000,1000,1000,1000,1000,1000,1000]","8400","0","test","8,5,9,2,3,4,2","7","","","","",""
"single-stim-button","93","658675","0.0-18.0-2.0","1322","2","digit-span","true","0","","27530","","","response","","","","","","27530","1000","test","8,5,9,2,3,4,2","7","SubmitButton","27530","2,4,3,2,9,5,8","reverse","true"
"html-keyboard-response","94","659677","0.0-18.0-3.0","1322","2","digit-span","true","0","","null","<div class = centerbox><div class = center-text>7 Digits</p></div>","null","test_intro","","","","","","","","","","","","","","",""
"poldrack-multi-stim-multi-response","95","669081","0.0-18.0-4.0","1322","2","digit-span","true","0","","[-1]","","","stim","","[""<div class = centerbox><div class = digit-span-text>4</div></div>"",""<div class = centerbox><div class = digit-span-text>5</div></div>"",""<div class = centerbox><div class = digit-span-text>7</div></div>"",""<div class = centerbox><div class = digit-span-text>9</div></div>"",""<div class = centerbox><div class = digit-span-text>2</div></div>"",""<div class = centerbox><div class = digit-span-text>8</div></div>"",""<div class = centerbox><div class = digit-span-text>1</div></div>""]","[-1]","none","[1000,1000,1000,1000,1000,1000,1000]","8400","0","test","4,5,7,9,2,8,1","7","","","","",""
"single-stim-button","96","682539","0.0-18.0-5.0","1322","2","digit-span","true","0","","13456","","","response","","","","","","13456","1000","test","4,5,7,9,2,8,1","7","SubmitButton","13456","1,8,2,9,7,5,4","reverse","true"
"html-keyboard-response","97","683541","0.0-19.0-0.0","1322","2","digit-span","true","0","","null","<div class = centerbox><div class = center-text>8 Digits</p></div>","null","test_intro","","","","","","","","","","","","","","",""
"poldrack-multi-stim-multi-response","98","694145","0.0-19.0-1.0","1322","2","digit-span","true","0","","[-1]","","","stim","","[""<div class = centerbox><div class = digit-span-text>6</div></div>"",""<div class = centerbox><div class = digit-span-text>9</div></div>"",""<div class = centerbox><div class = digit-span-text>1</div></div>"",""<div class = centerbox><div class = digit-span-text>6</div></div>"",""<div class = centerbox><div class = digit-span-text>3</div></div>"",""<div class = centerbox><div class = digit-span-text>2</div></div>"",""<div class = centerbox><div class = digit-span-text>5</div></div>"",""<div class = centerbox><div class = digit-span-text>8</div></div>""]","[-1]","none","[1000,1000,1000,1000,1000,1000,1000,1000]","9600","0","test","6,9,1,6,3,2,5,8","8","","","","",""
"single-stim-button","99","711315","0.0-19.0-2.0","1322","2","digit-span","true","0","","17168","","","response","","","","","","17168","1000","test","6,9,1,6,3,2,5,8","8","SubmitButton","17168","8,5,2,3,6,1,9,6","reverse","true"
"html-keyboard-response","100","712317","0.0-19.0-3.0","1322","2","digit-span","true","0","","null","<div class = centerbox><div class = center-text>8 Digits</p></div>","null","test_intro","","","","","","","","","","","","","","",""
"poldrack-multi-stim-multi-response","101","722920","0.0-19.0-4.0","1322","2","digit-span","true","0","","[-1]","","","stim","","[""<div class = centerbox><div class = digit-span-text>3</div></div>"",""<div class = centerbox><div class = digit-span-text>1</div></div>"",""<div class = centerbox><div class = digit-span-text>7</div></div>"",""<div class = centerbox><div class = digit-span-text>9</div></div>"",""<div class = centerbox><div class = digit-span-text>5</div></div>"",""<div class = centerbox><div class = digit-span-text>4</div></div>"",""<div class = centerbox><div class = digit-span-text>8</div></div>"",""<div class = centerbox><div class = digit-span-text>2</div></div>""]","[-1]","none","[1000,1000,1000,1000,1000,1000,1000,1000]","9600","0","test","3,1,7,9,5,4,8,2","8","","","","",""
"single-stim-button","102","738939","0.0-19.0-5.0","1322","2","digit-span","true","0","","16018","","","response","","","","","","16018","1000","test","3,1,7,9,5,4,8,2","8","SubmitButton","16018","2,8,4,5,9,7,1,3","reverse","true"
"image-keyboard-response","103","744035","0.0-20.0","1322","2","digit-span","true","0","","5094.800000071526","img/trophy2.jpeg","13","end","","","","","","","","","","","","","","",""
