"trial_type","trial_index","time_elapsed","internal_node_id","subject","order","exp_id","full_screen","focus_shifts","success","rt","stimulus","key_press","trial_id","view_history","stimuli","key_presses","possible_responses","stim_durations","block_duration","timing_post_trial","exp_stage","sequence","num_digits","mouse_click","stim_duration","response","condition","correct"
"pavlovia","0","2609","0.0-0.0","2139","1","digit-span","true","0","","","","","","","","","","","","","","","","","","","",""
"fullscreen","1","11626","0.0-1.0","2139","1","digit-span","true","0","true","","","","","","","","","","","","","","","","","","",""
"html-keyboard-response","2","18704","0.0-2.0-0.0","2139","1","digit-span","true","0","","7076.600000023842","<div class = centerbox><p class = center-block-text>Welcome to the number game! It will take less than 5 minutes. Press <strong>""Enter/Return""</strong> to begin.</p></div>","13","instruction","","","","","","","","","","","","","","",""
"instructions","3","22680","0.0-2.0-1.0","2139","1","digit-span","true","0","","3974.900000035763","","","instruction","[{""page_index"":0,""viewing_time"":3974.7000000476837}]","","","","","","","","","","","","","",""
"instructions","4","27808","0.0-2.0-2.0","2139","1","digit-span","true","0","","4127.100000023842","","","instruction","[{""page_index"":0,""viewing_time"":4126.900000035763}]","","","","","","","","","","","","","",""
"html-keyboard-response","5","29817","0.0-3.0-0.0","2139","1","digit-span","true","0","","null","<div class = centerbox><div class = center-text>2 Digits</p></div>","null","test_intro","","","","","","","","","","","","","","",""
"poldrack-multi-stim-multi-response","6","33220","0.0-3.0-1.0","2139","1","digit-span","true","0","","[-1]","","","stim","","[""<div class = centerbox><div class = digit-span-text>2</div></div>"",""<div class = centerbox><div class = digit-span-text>9</div></div>""]","[-1]","none","[1000,1000]","2400","0","test","2,9","2","","","","",""
"single-stim-button","7","37632","0.0-3.0-2.0","2139","1","digit-span","true","0","","4411","","","response","","","","","","4411","1000","test","2,9","2","SubmitButton","4411","2,9","forward","true"
"html-keyboard-response","8","38634","0.0-3.0-3.0","2139","1","digit-span","true","0","","null","<div class = centerbox><div class = center-text>2 Digits</p></div>","null","test_intro","","","","","","","","","","","","","","",""
"poldrack-multi-stim-multi-response","9","42036","0.0-3.0-4.0","2139","1","digit-span","true","0","","[-1]","","","stim","","[""<div class = centerbox><div class = digit-span-text>4</div></div>"",""<div class = centerbox><div class = digit-span-text>6</div></div>""]","[-1]","none","[1000,1000]","2400","0","test","4,6","2","","","","",""
"single-stim-button","10","46520","0.0-3.0-5.0","2139","1","digit-span","true","0","","4484","","","response","","","","","","4484","1000","test","4,6","2","SubmitButton","4484","4,6","forward","true"
"html-keyboard-response","11","47521","0.0-4.0-0.0","2139","1","digit-span","true","0","","null","<div class = centerbox><div class = center-text>3 Digits</p></div>","null","test_intro","","","","","","","","","","","","","","",""
"poldrack-multi-stim-multi-response","12","52123","0.0-4.0-1.0","2139","1","digit-span","true","0","","[-1]","","","stim","","[""<div class = centerbox><div class = digit-span-text>3</div></div>"",""<div class = centerbox><div class = digit-span-text>8</div></div>"",""<div class = centerbox><div class = digit-span-text>6</div></div>""]","[-1]","none","[1000,1000,1000]","3600","0","test","3,8,6","3","","","","",""
"single-stim-button","13","58458","0.0-4.0-2.0","2139","1","digit-span","true","0","","6335","","","response","","","","","","6335","1000","test","3,8,6","3","SubmitButton","6335","3,8,6","forward","true"
"html-keyboard-response","14","59459","0.0-4.0-3.0","2139","1","digit-span","true","0","","null","<div class = centerbox><div class = center-text>3 Digits</p></div>","null","test_intro","","","","","","","","","","","","","","",""
"poldrack-multi-stim-multi-response","15","64061","0.0-4.0-4.0","2139","1","digit-span","true","0","","[-1]","","","stim","","[""<div class = centerbox><div class = digit-span-text>6</div></div>"",""<div class = centerbox><div class = digit-span-text>1</div></div>"",""<div class = centerbox><div class = digit-span-text>2</div></div>""]","[-1]","none","[1000,1000,1000]","3600","0","test","6,1,2","3","","","","",""
"single-stim-button","16","68816","0.0-4.0-5.0","2139","1","digit-span","true","0","","4755","","","response","","","","","","4755","1000","test","6,1,2","3","SubmitButton","4755","6,1,2","forward","true"
"html-keyboard-response","17","69817","0.0-5.0-0.0","2139","1","digit-span","true","0","","null","<div class = centerbox><div class = center-text>4 Digits</p></div>","null","test_intro","","","","","","","","","","","","","","",""
"poldrack-multi-stim-multi-response","18","75619","0.0-5.0-1.0","2139","1","digit-span","true","0","","[-1]","","","stim","","[""<div class = centerbox><div class = digit-span-text>3</div></div>"",""<div class = centerbox><div class = digit-span-text>4</div></div>"",""<div class = centerbox><div class = digit-span-text>1</div></div>"",""<div class = centerbox><div class = digit-span-text>7</div></div>""]","[-1]","none","[1000,1000,1000,1000]","4800","0","test","3,4,1,7","4","","","","",""
"single-stim-button","19","81946","0.0-5.0-2.0","2139","1","digit-span","true","0","","6327","","","response","","","","","","6327","1000","test","3,4,1,7","4","SubmitButton","6327","3,4,1,7","forward","true"
"html-keyboard-response","20","82948","0.0-5.0-3.0","2139","1","digit-span","true","0","","null","<div class = centerbox><div class = center-text>4 Digits</p></div>","null","test_intro","","","","","","","","","","","","","","",""
"poldrack-multi-stim-multi-response","21","88749","0.0-5.0-4.0","2139","1","digit-span","true","0","","[-1]","","","stim","","[""<div class = centerbox><div class = digit-span-text>6</div></div>"",""<div class = centerbox><div class = digit-span-text>1</div></div>"",""<div class = centerbox><div class = digit-span-text>5</div></div>"",""<div class = centerbox><div class = digit-span-text>8</div></div>""]","[-1]","none","[1000,1000,1000,1000]","4800","0","test","6,1,5,8","4","","","","",""
"single-stim-button","22","93249","0.0-5.0-5.0","2139","1","digit-span","true","0","","4499","","","response","","","","","","4499","1000","test","6,1,5,8","4","SubmitButton","4499","6,1,5,8","forward","true"
"html-keyboard-response","23","94250","0.0-6.0-0.0","2139","1","digit-span","true","0","","null","<div class = centerbox><div class = center-text>5 Digits</p></div>","null","test_intro","","","","","","","","","","","","","","",""
"poldrack-multi-stim-multi-response","24","101252","0.0-6.0-1.0","2139","1","digit-span","true","0","","[-1]","","","stim","","[""<div class = centerbox><div class = digit-span-text>8</div></div>"",""<div class = centerbox><div class = digit-span-text>4</div></div>"",""<div class = centerbox><div class = digit-span-text>2</div></div>"",""<div class = centerbox><div class = digit-span-text>3</div></div>"",""<div class = centerbox><div class = digit-span-text>9</div></div>""]","[-1]","none","[1000,1000,1000,1000,1000]","6000","0","test","8,4,2,3,9","5","","","","",""
"single-stim-button","25","109225","0.0-6.0-2.0","2139","1","digit-span","true","0","","7973","","","response","","","","","","7973","1000","test","8,4,2,3,9","5","SubmitButton","7973","8,4,2,3,9","forward","true"
"html-keyboard-response","26","110226","0.0-6.0-3.0","2139","1","digit-span","true","0","","null","<div class = centerbox><div class = center-text>5 Digits</p></div>","null","test_intro","","","","","","","","","","","","","","",""
"poldrack-multi-stim-multi-response","27","117228","0.0-6.0-4.0","2139","1","digit-span","true","0","","[-1]","","","stim","","[""<div class = centerbox><div class = digit-span-text>5</div></div>"",""<div class = centerbox><div class = digit-span-text>2</div></div>"",""<div class = centerbox><div class = digit-span-text>1</div></div>"",""<div class = centerbox><div class = digit-span-text>8</div></div>"",""<div class = centerbox><div class = digit-span-text>6</div></div>""]","[-1]","none","[1000,1000,1000,1000,1000]","6000","0","test","5,2,1,8,6","5","","","","",""
"single-stim-button","28","124480","0.0-6.0-5.0","2139","1","digit-span","true","0","","7250","","","response","","","","","","7250","1000","test","5,2,1,8,6","5","SubmitButton","7250","5,2,1,8,6","forward","true"
"html-keyboard-response","29","125481","0.0-7.0-0.0","2139","1","digit-span","true","0","","null","<div class = centerbox><div class = center-text>6 Digits</p></div>","null","test_intro","","","","","","","","","","","","","","",""
"poldrack-multi-stim-multi-response","30","133684","0.0-7.0-1.0","2139","1","digit-span","true","0","","[-1]","","","stim","","[""<div class = centerbox><div class = digit-span-text>3</div></div>"",""<div class = centerbox><div class = digit-span-text>8</div></div>"",""<div class = centerbox><div class = digit-span-text>9</div></div>"",""<div class = centerbox><div class = digit-span-text>1</div></div>"",""<div class = centerbox><div class = digit-span-text>7</div></div>"",""<div class = centerbox><div class = digit-span-text>4</div></div>""]","[-1]","none","[1000,1000,1000,1000,1000,1000]","7200","0","test","3,8,9,1,7,4","6","","","","",""
"single-stim-button","31","142240","0.0-7.0-2.0","2139","1","digit-span","true","0","","8555","","","response","","","","","","8555","1000","test","3,8,9,1,7,4","6","SubmitButton","8555","3,8,9,1,7,4","forward","true"
"html-keyboard-response","32","143241","0.0-7.0-3.0","2139","1","digit-span","true","0","","null","<div class = centerbox><div class = center-text>6 Digits</p></div>","null","test_intro","","","","","","","","","","","","","","",""
"poldrack-multi-stim-multi-response","33","151443","0.0-7.0-4.0","2139","1","digit-span","true","0","","[-1]","","","stim","","[""<div class = centerbox><div class = digit-span-text>7</div></div>"",""<div class = centerbox><div class = digit-span-text>9</div></div>"",""<div class = centerbox><div class = digit-span-text>6</div></div>"",""<div class = centerbox><div class = digit-span-text>4</div></div>"",""<div class = centerbox><div class = digit-span-text>8</div></div>"",""<div class = centerbox><div class = digit-span-text>3</div></div>""]","[-1]","none","[1000,1000,1000,1000,1000,1000]","7200","0","test","7,9,6,4,8,3","6","","","","",""
"single-stim-button","34","159071","0.0-7.0-5.0","2139","1","digit-span","true","0","","7628","","","response","","","","","","7628","1000","test","7,9,6,4,8,3","6","SubmitButton","7628","7,9,6,4,8,3","forward","true"
"html-keyboard-response","35","160073","0.0-8.0-0.0","2139","1","digit-span","true","0","","null","<div class = centerbox><div class = center-text>7 Digits</p></div>","null","test_intro","","","","","","","","","","","","","","",""
"poldrack-multi-stim-multi-response","36","169480","0.0-8.0-1.0","2139","1","digit-span","true","0","","[-1]","","","stim","","[""<div class = centerbox><div class = digit-span-text>5</div></div>"",""<div class = centerbox><div class = digit-span-text>1</div></div>"",""<div class = centerbox><div class = digit-span-text>7</div></div>"",""<div class = centerbox><div class = digit-span-text>4</div></div>"",""<div class = centerbox><div class = digit-span-text>2</div></div>"",""<div class = centerbox><div class = digit-span-text>3</div></div>"",""<div class = centerbox><div class = digit-span-text>8</div></div>""]","[-1]","none","[1000,1000,1000,1000,1000,1000,1000]","8400","0","test","5,1,7,4,2,3,8","7","","","","",""
"single-stim-button","37","179914","0.0-8.0-2.0","2139","1","digit-span","true","0","","10433","","","response","","","","","","10433","1000","test","5,1,7,4,2,3,8","7","SubmitButton","10433","5,1,7,4,2,3,8","forward","true"
"html-keyboard-response","38","180915","0.0-8.0-3.0","2139","1","digit-span","true","0","","null","<div class = centerbox><div class = center-text>7 Digits</p></div>","null","test_intro","","","","","","","","","","","","","","",""
"poldrack-multi-stim-multi-response","39","190317","0.0-8.0-4.0","2139","1","digit-span","true","0","","[-1]","","","stim","","[""<div class = centerbox><div class = digit-span-text>9</div></div>"",""<div class = centerbox><div class = digit-span-text>8</div></div>"",""<div class = centerbox><div class = digit-span-text>5</div></div>"",""<div class = centerbox><div class = digit-span-text>2</div></div>"",""<div class = centerbox><div class = digit-span-text>1</div></div>"",""<div class = centerbox><div class = digit-span-text>6</div></div>"",""<div class = centerbox><div class = digit-span-text>3</div></div>""]","[-1]","none","[1000,1000,1000,1000,1000,1000,1000]","8400","0","test","9,8,5,2,1,6,3","7","","","","",""
"single-stim-button","40","201863","0.0-8.0-5.0","2139","1","digit-span","true","0","","11546","","","response","","","","","","11546","1000","test","9,8,5,2,1,6,3","7","SubmitButton","11546","9,8,5,2,1,6,3","forward","true"
"html-keyboard-response","41","202864","0.0-9.0-0.0","2139","1","digit-span","true","0","","null","<div class = centerbox><div class = center-text>8 Digits</p></div>","null","test_intro","","","","","","","","","","","","","","",""
"poldrack-multi-stim-multi-response","42","213468","0.0-9.0-1.0","2139","1","digit-span","true","0","","[-1]","","","stim","","[""<div class = centerbox><div class = digit-span-text>1</div></div>"",""<div class = centerbox><div class = digit-span-text>6</div></div>"",""<div class = centerbox><div class = digit-span-text>4</div></div>"",""<div class = centerbox><div class = digit-span-text>5</div></div>"",""<div class = centerbox><div class = digit-span-text>9</div></div>"",""<div class = centerbox><div class = digit-span-text>7</div></div>"",""<div class = centerbox><div class = digit-span-text>6</div></div>"",""<div class = centerbox><div class = digit-span-text>3</div></div>""]","[-1]","none","[1000,1000,1000,1000,1000,1000,1000,1000]","9600","0","test","1,6,4,5,9,7,6,3","8","","","","",""
"single-stim-button","43","224360","0.0-9.0-2.0","2139","1","digit-span","true","0","","10891","","","response","","","","","","10891","1000","test","1,6,4,5,9,7,6,3","8","SubmitButton","10891","1,6,4,5,9,7,6,3","forward","true"
"html-keyboard-response","44","225361","0.0-9.0-3.0","2139","1","digit-span","true","0","","null","<div class = centerbox><div class = center-text>8 Digits</p></div>","null","test_intro","","","","","","","","","","","","","","",""
"poldrack-multi-stim-multi-response","45","235962","0.0-9.0-4.0","2139","1","digit-span","true","0","","[-1]","","","stim","","[""<div class = centerbox><div class = digit-span-text>2</div></div>"",""<div class = centerbox><div class = digit-span-text>9</div></div>"",""<div class = centerbox><div class = digit-span-text>7</div></div>"",""<div class = centerbox><div class = digit-span-text>6</div></div>"",""<div class = centerbox><div class = digit-span-text>3</div></div>"",""<div class = centerbox><div class = digit-span-text>1</div></div>"",""<div class = centerbox><div class = digit-span-text>5</div></div>"",""<div class = centerbox><div class = digit-span-text>4</div></div>""]","[-1]","none","[1000,1000,1000,1000,1000,1000,1000,1000]","9600","0","test","2,9,7,6,3,1,5,4","8","","","","",""
"single-stim-button","46","250385","0.0-9.0-5.0","2139","1","digit-span","true","0","","14421","","","response","","","","","","14421","1000","test","2,9,7,6,3,1,5,4","8","SubmitButton","14421","2,9,7,6,3,4,1","forward","false"
"html-keyboard-response","47","251386","0.0-10.0-0.0","2139","1","digit-span","true","0","","null","<div class = centerbox><div class = center-text>9 Digits</p></div>","null","test_intro","","","","","","","","","","","","","","",""
"poldrack-multi-stim-multi-response","48","263188","0.0-10.0-1.0","2139","1","digit-span","true","0","","[-1]","","","stim","","[""<div class = centerbox><div class = digit-span-text>5</div></div>"",""<div class = centerbox><div class = digit-span-text>3</div></div>"",""<div class = centerbox><div class = digit-span-text>8</div></div>"",""<div class = centerbox><div class = digit-span-text>7</div></div>"",""<div class = centerbox><div class = digit-span-text>1</div></div>"",""<div class = centerbox><div class = digit-span-text>2</div></div>"",""<div class = centerbox><div class = digit-span-text>4</div></div>"",""<div class = centerbox><div class = digit-span-text>6</div></div>"",""<div class = centerbox><div class = digit-span-text>9</div></div>""]","[-1]","none","[1000,1000,1000,1000,1000,1000,1000,1000,1000]","10800","0","test","5,3,8,7,1,2,4,6,9","9","","","","",""
"single-stim-button","49","277937","0.0-10.0-2.0","2139","1","digit-span","true","0","","14747","","","response","","","","","","14747","1000","test","5,3,8,7,1,2,4,6,9","9","SubmitButton","14747","5,2,7,4,1,6","forward","false"
"html-keyboard-response","50","278938","0.0-10.0-3.0","2139","1","digit-span","true","0","","null","<div class = centerbox><div class = center-text>9 Digits</p></div>","null","test_intro","","","","","","","","","","","","","","",""
"poldrack-multi-stim-multi-response","51","290740","0.0-10.0-4.0","2139","1","digit-span","true","0","","[-1]","","","stim","","[""<div class = centerbox><div class = digit-span-text>4</div></div>"",""<div class = centerbox><div class = digit-span-text>2</div></div>"",""<div class = centerbox><div class = digit-span-text>6</div></div>"",""<div class = centerbox><div class = digit-span-text>9</div></div>"",""<div class = centerbox><div class = digit-span-text>1</div></div>"",""<div class = centerbox><div class = digit-span-text>7</div></div>"",""<div class = centerbox><div class = digit-span-text>8</div></div>"",""<div class = centerbox><div class = digit-span-text>3</div></div>"",""<div class = centerbox><div class = digit-span-text>5</div></div>""]","[-1]","none","[1000,1000,1000,1000,1000,1000,1000,1000,1000]","10800","0","test","4,2,6,9,1,7,8,3,5","9","","","","",""
"single-stim-button","52","303407","0.0-10.0-5.0","2139","1","digit-span","true","0","","12667","","","response","","","","","","12667","1000","test","4,2,6,9,1,7,8,3,5","9","SubmitButton","12667","4,2,6,9,8,7,3,5","forward","false"
"html-keyboard-response","53","309263","0.0-11.0","2139","1","digit-span","true","0","","5855.199999988079","<div class = centerbox><p class = block-text>Now, you will see some numbers, but this time you will enter them <strong>backward</strong>.<br><br>For example, you see <strong>“1—5”</strong>, and you will enter <strong>“5—1”</strong>.<br><br><br>Press <strong>""Enter/Return""</strong> to begin.</p></div>","13","start_reverse","","","","","","","","","","","","","","",""
"html-keyboard-response","54","310265","0.0-12.0-0.0","2139","1","digit-span","true","0","","null","<div class = centerbox><div class = center-text>2 Digits</p></div>","null","test_intro","","","","","","","","","","","","","","",""
"poldrack-multi-stim-multi-response","55","313667","0.0-12.0-1.0","2139","1","digit-span","true","0","","[-1]","","","stim","","[""<div class = centerbox><div class = digit-span-text>8</div></div>"",""<div class = centerbox><div class = digit-span-text>2</div></div>""]","[-1]","none","[1000,1000]","2400","0","test","8,2","2","","","","",""
"single-stim-button","56","324158","0.0-12.0-2.0","2139","1","digit-span","true","0","","10491","","","response","","","","","","10491","1000","test","8,2","2","SubmitButton","10491","2,8","practice","true"
"html-keyboard-response","57","334159","0.0-12.0-3.0","2139","1","digit-span","true","0","","null","<div class = centerbox><div class = center-block-text><span style=""color:green"">Correct!</span></div></div>","null","feedback","","","","","","","","","","","","","","",""
"html-keyboard-response","58","335161","0.0-12.0-4.0","2139","1","digit-span","true","0","","null","<div class = centerbox><div class = center-text>2 Digits</p></div>","null","test_intro","","","","","","","","","","","","","","",""
"poldrack-multi-stim-multi-response","59","338563","0.0-12.0-5.0","2139","1","digit-span","true","0","","[-1]","","","stim","","[""<div class = centerbox><div class = digit-span-text>5</div></div>"",""<div class = centerbox><div class = digit-span-text>6</div></div>""]","[-1]","none","[1000,1000]","2400","0","test","5,6","2","","","","",""
"single-stim-button","60","342126","0.0-12.0-6.0","2139","1","digit-span","true","0","","3563","","","response","","","","","","3563","1000","test","5,6","2","SubmitButton","3563","6,5","practice","true"
"html-keyboard-response","61","343128","0.0-13.0-0.0","2139","1","digit-span","true","0","","null","<div class = centerbox><div class = center-text>2 Digits</p></div>","null","test_intro","","","","","","","","","","","","","","",""
"poldrack-multi-stim-multi-response","62","346530","0.0-13.0-1.0","2139","1","digit-span","true","0","","[-1]","","","stim","","[""<div class = centerbox><div class = digit-span-text>2</div></div>"",""<div class = centerbox><div class = digit-span-text>5</div></div>""]","[-1]","none","[1000,1000]","2400","0","test","2,5","2","","","","",""
"single-stim-button","63","350391","0.0-13.0-2.0","2139","1","digit-span","true","0","","3860","","","response","","","","","","3860","1000","test","2,5","2","SubmitButton","3860","5,2","reverse","true"
"html-keyboard-response","64","351392","0.0-13.0-3.0","2139","1","digit-span","true","0","","null","<div class = centerbox><div class = center-text>2 Digits</p></div>","null","test_intro","","","","","","","","","","","","","","",""
"poldrack-multi-stim-multi-response","65","354793","0.0-13.0-4.0","2139","1","digit-span","true","0","","[-1]","","","stim","","[""<div class = centerbox><div class = digit-span-text>6</div></div>"",""<div class = centerbox><div class = digit-span-text>3</div></div>""]","[-1]","none","[1000,1000]","2400","0","test","6,3","2","","","","",""
"single-stim-button","66","360719","0.0-13.0-5.0","2139","1","digit-span","true","0","","5924","","","response","","","","","","5924","1000","test","6,3","2","SubmitButton","5924","3,6","reverse","true"
"html-keyboard-response","67","361720","0.0-14.0-0.0","2139","1","digit-span","true","0","","null","<div class = centerbox><div class = center-text>3 Digits</p></div>","null","test_intro","","","","","","","","","","","","","","",""
"poldrack-multi-stim-multi-response","68","366321","0.0-14.0-1.0","2139","1","digit-span","true","0","","[-1]","","","stim","","[""<div class = centerbox><div class = digit-span-text>5</div></div>"",""<div class = centerbox><div class = digit-span-text>7</div></div>"",""<div class = centerbox><div class = digit-span-text>4</div></div>""]","[-1]","none","[1000,1000,1000]","3600","0","test","5,7,4","3","","","","",""
"single-stim-button","69","370782","0.0-14.0-2.0","2139","1","digit-span","true","0","","4460","","","response","","","","","","4460","1000","test","5,7,4","3","SubmitButton","4460","5,7,4","reverse","false"
"html-keyboard-response","70","371784","0.0-14.0-3.0","2139","1","digit-span","true","0","","null","<div class = centerbox><div class = center-text>3 Digits</p></div>","null","test_intro","","","","","","","","","","","","","","",""
"poldrack-multi-stim-multi-response","71","376385","0.0-14.0-4.0","2139","1","digit-span","true","0","","[-1]","","","stim","","[""<div class = centerbox><div class = digit-span-text>2</div></div>"",""<div class = centerbox><div class = digit-span-text>5</div></div>"",""<div class = centerbox><div class = digit-span-text>9</div></div>""]","[-1]","none","[1000,1000,1000]","3600","0","test","2,5,9","3","","","","",""
"single-stim-button","72","384359","0.0-14.0-5.0","2139","1","digit-span","true","0","","7973","","","response","","","","","","7973","1000","test","2,5,9","3","SubmitButton","7973","9,5,2","reverse","true"
"html-keyboard-response","73","385361","0.0-15.0-0.0","2139","1","digit-span","true","0","","null","<div class = centerbox><div class = center-text>4 Digits</p></div>","null","test_intro","","","","","","","","","","","","","","",""
"poldrack-multi-stim-multi-response","74","391163","0.0-15.0-1.0","2139","1","digit-span","true","0","","[-1]","","","stim","","[""<div class = centerbox><div class = digit-span-text>7</div></div>"",""<div class = centerbox><div class = digit-span-text>2</div></div>"",""<div class = centerbox><div class = digit-span-text>9</div></div>"",""<div class = centerbox><div class = digit-span-text>6</div></div>""]","[-1]","none","[1000,1000,1000,1000]","4800","0","test","7,2,9,6","4","","","","",""
"single-stim-button","75","405814","0.0-15.0-2.0","2139","1","digit-span","true","0","","14650","","","response","","","","","","14650","1000","test","7,2,9,6","4","SubmitButton","14650","6,9,2,7","reverse","true"
"html-keyboard-response","76","406816","0.0-15.0-3.0","2139","1","digit-span","true","0","","null","<div class = centerbox><div class = center-text>4 Digits</p></div>","null","test_intro","","","","","","","","","","","","","","",""
"poldrack-multi-stim-multi-response","77","412618","0.0-15.0-4.0","2139","1","digit-span","true","0","","[-1]","","","stim","","[""<div class = centerbox><div class = digit-span-text>8</div></div>"",""<div class = centerbox><div class = digit-span-text>4</div></div>"",""<div class = centerbox><div class = digit-span-text>9</div></div>"",""<div class = centerbox><div class = digit-span-text>3</div></div>""]","[-1]","none","[1000,1000,1000,1000]","4800","0","test","8,4,9,3","4","","","","",""
"single-stim-button","78","425086","0.0-15.0-5.0","2139","1","digit-span","true","0","","12468","","","response","","","","","","12468","1000","test","8,4,9,3","4","SubmitButton","12468","3,9,4,8","reverse","true"
"html-keyboard-response","79","426089","0.0-16.0-0.0","2139","1","digit-span","true","0","","null","<div class = centerbox><div class = center-text>5 Digits</p></div>","null","test_intro","","","","","","","","","","","","","","",""
"poldrack-multi-stim-multi-response","80","433093","0.0-16.0-1.0","2139","1","digit-span","true","0","","[-1]","","","stim","","[""<div class = centerbox><div class = digit-span-text>4</div></div>"",""<div class = centerbox><div class = digit-span-text>1</div></div>"",""<div class = centerbox><div class = digit-span-text>3</div></div>"",""<div class = centerbox><div class = digit-span-text>5</div></div>"",""<div class = centerbox><div class = digit-span-text>7</div></div>""]","[-1]","none","[1000,1000,1000,1000,1000]","6000","0","test","4,1,3,5,7","5","","","","",""
"single-stim-button","81","443000","0.0-16.0-2.0","2139","1","digit-span","true","0","","9906","","","response","","","","","","9906","1000","test","4,1,3,5,7","5","SubmitButton","9906","7,5,3,1,4","reverse","true"
"html-keyboard-response","82","444001","0.0-16.0-3.0","2139","1","digit-span","true","0","","null","<div class = centerbox><div class = center-text>5 Digits</p></div>","null","test_intro","","","","","","","","","","","","","","",""
"poldrack-multi-stim-multi-response","83","451003","0.0-16.0-4.0","2139","1","digit-span","true","0","","[-1]","","","stim","","[""<div class = centerbox><div class = digit-span-text>9</div></div>"",""<div class = centerbox><div class = digit-span-text>7</div></div>"",""<div class = centerbox><div class = digit-span-text>8</div></div>"",""<div class = centerbox><div class = digit-span-text>5</div></div>"",""<div class = centerbox><div class = digit-span-text>2</div></div>""]","[-1]","none","[1000,1000,1000,1000,1000]","6000","0","test","9,7,8,5,2","5","","","","",""
"single-stim-button","84","466518","0.0-16.0-5.0","2139","1","digit-span","true","0","","15514","","","response","","","","","","15514","1000","test","9,7,8,5,2","5","SubmitButton","15514","2,5,8,7,9","reverse","true"
"html-keyboard-response","85","467519","0.0-17.0-0.0","2139","1","digit-span","true","0","","null","<div class = centerbox><div class = center-text>6 Digits</p></div>","null","test_intro","","","","","","","","","","","","","","",""
"poldrack-multi-stim-multi-response","86","475720","0.0-17.0-1.0","2139","1","digit-span","true","0","","[-1]","","","stim","","[""<div class = centerbox><div class = digit-span-text>1</div></div>"",""<div class = centerbox><div class = digit-span-text>6</div></div>"",""<div class = centerbox><div class = digit-span-text>5</div></div>"",""<div class = centerbox><div class = digit-span-text>2</div></div>"",""<div class = centerbox><div class = digit-span-text>9</div></div>"",""<div class = centerbox><div class = digit-span-text>8</div></div>""]","[-1]","none","[1000,1000,1000,1000,1000,1000]","7200","0","test","1,6,5,2,9,8","6","","","","",""
"single-stim-button","87","489702","0.0-17.0-2.0","2139","1","digit-span","true","0","","13982","","","response","","","","","","13982","1000","test","1,6,5,2,9,8","6","SubmitButton","13982","8,9,2,5,6,1","reverse","true"
"html-keyboard-response","88","490703","0.0-17.0-3.0","2139","1","digit-span","true","0","","null","<div class = centerbox><div class = center-text>6 Digits</p></div>","null","test_intro","","","","","","","","","","","","","","",""
"poldrack-multi-stim-multi-response","89","498905","0.0-17.0-4.0","2139","1","digit-span","true","0","","[-1]","","","stim","","[""<div class = centerbox><div class = digit-span-text>3</div></div>"",""<div class = centerbox><div class = digit-span-text>6</div></div>"",""<div class = centerbox><div class = digit-span-text>7</div></div>"",""<div class = centerbox><div class = digit-span-text>1</div></div>"",""<div class = centerbox><div class = digit-span-text>9</div></div>"",""<div class = centerbox><div class = digit-span-text>4</div></div>""]","[-1]","none","[1000,1000,1000,1000,1000,1000]","7200","0","test","3,6,7,1,9,4","6","","","","",""
"single-stim-button","90","533454","0.0-17.0-5.0","2139","1","digit-span","true","0","","34548","","","response","","","","","","34548","1000","test","3,6,7,1,9,4","6","SubmitButton","34548","9,4,1,3,5,6","reverse","false"
"html-keyboard-response","91","534455","0.0-18.0-0.0","2139","1","digit-span","true","0","","null","<div class = centerbox><div class = center-text>7 Digits</p></div>","null","test_intro","","","","","","","","","","","","","","",""
"poldrack-multi-stim-multi-response","92","543858","0.0-18.0-1.0","2139","1","digit-span","true","0","","[-1]","","","stim","","[""<div class = centerbox><div class = digit-span-text>8</div></div>"",""<div class = centerbox><div class = digit-span-text>5</div></div>"",""<div class = centerbox><div class = digit-span-text>9</div></div>"",""<div class = centerbox><div class = digit-span-text>2</div></div>"",""<div class = centerbox><div class = digit-span-text>3</div></div>"",""<div class = centerbox><div class = digit-span-text>4</div></div>"",""<div class = centerbox><div class = digit-span-text>2</div></div>""]","[-1]","none","[1000,1000,1000,1000,1000,1000,1000]","8400","0","test","8,5,9,2,3,4,2","7","","","","",""
"single-stim-button","93","591582","0.0-18.0-2.0","2139","1","digit-span","true","0","","47724","","","response","","","","","","47724","1000","test","8,5,9,2,3,4,2","7","SubmitButton","47724","7,2,4,2,8,9,5","reverse","false"
"html-keyboard-response","94","592583","0.0-18.0-3.0","2139","1","digit-span","true","0","","null","<div class = centerbox><div class = center-text>7 Digits</p></div>","null","test_intro","","","","","","","","","","","","","","",""
"poldrack-multi-stim-multi-response","95","601985","0.0-18.0-4.0","2139","1","digit-span","true","0","","[-1]","","","stim","","[""<div class = centerbox><div class = digit-span-text>4</div></div>"",""<div class = centerbox><div class = digit-span-text>5</div></div>"",""<div class = centerbox><div class = digit-span-text>7</div></div>"",""<div class = centerbox><div class = digit-span-text>9</div></div>"",""<div class = centerbox><div class = digit-span-text>2</div></div>"",""<div class = centerbox><div class = digit-span-text>8</div></div>"",""<div class = centerbox><div class = digit-span-text>1</div></div>""]","[-1]","none","[1000,1000,1000,1000,1000,1000,1000]","8400","0","test","4,5,7,9,2,8,1","7","","","","",""
"single-stim-button","96","627702","0.0-18.0-5.0","2139","1","digit-span","true","0","","25717","","","response","","","","","","25717","1000","test","4,5,7,9,2,8,1","7","SubmitButton","25717","7,5,5","reverse","false"
"image-keyboard-response","97","630942","0.0-20.0","2139","1","digit-span","true","0","","3238.5","img/trophy2.jpeg","13","end","","","","","","","","","","","","","","",""
