"trial_type","trial_index","time_elapsed","internal_node_id","subject","exp_id","full_screen","focus_shifts","success","rt","stimulus","key_press","trial_id","view_history","stimuli","key_presses","possible_responses","stim_durations","block_duration","timing_post_trial","exp_stage","sequence","num_digits","mouse_click","stim_duration","response","condition","correct"
"pavlovia","0","3099","0.0-0.0","1236","digit-span","true","0","","","","","","","","","","","","","","","","","","","",""
"fullscreen","1","20491","0.0-1.0","1236","digit-span","true","0","true","","","","","","","","","","","","","","","","","","",""
"html-keyboard-response","2","24607","0.0-2.0-0.0","1236","digit-span","true","0","","4114.399999991059","<div class = centerbox><p class = center-block-text>Welcome to the number game! It will take less than 5 minutes. Press <strong>""Enter/Return""</strong> to begin.</p></div>","13","instruction","","","","","","","","","","","","","","",""
"instructions","3","38091","0.0-2.0-1.0","1236","digit-span","true","0","","13482.79999999702","","","instruction","[{""page_index"":0,""viewing_time"":13482.5}]","","","","","","","","","","","","","",""
"instructions","4","39649","0.0-2.0-2.0","1236","digit-span","true","0","","557","","","instruction","[{""page_index"":0,""viewing_time"":556.7999999970198}]","","","","","","","","","","","","","",""
"html-keyboard-response","5","41653","0.0-3.0-0.0","1236","digit-span","true","0","","null","<div class = centerbox><div class = center-text>2 Digits</p></div>","null","test_intro","","","","","","","","","","","","","","",""
"poldrack-multi-stim-multi-response","6","45059","0.0-3.0-1.0","1236","digit-span","true","0","","[-1]","","","stim","","[""<div class = centerbox><div class = digit-span-text>2</div></div>"",""<div class = centerbox><div class = digit-span-text>9</div></div>""]","[-1]","none","[1000,1000]","2400","0","test","2,9","2","","","","",""
"single-stim-button","7","53674","0.0-3.0-2.0","1236","digit-span","true","0","","8613","","","response","","","","","","8613","1000","test","2,9","2","SubmitButton","8613","2,9","forward","true"
"html-keyboard-response","8","54676","0.0-3.0-3.0","1236","digit-span","true","0","","null","<div class = centerbox><div class = center-text>2 Digits</p></div>","null","test_intro","","","","","","","","","","","","","","",""
"poldrack-multi-stim-multi-response","9","58080","0.0-3.0-4.0","1236","digit-span","true","0","","[-1]","","","stim","","[""<div class = centerbox><div class = digit-span-text>4</div></div>"",""<div class = centerbox><div class = digit-span-text>6</div></div>""]","[-1]","none","[1000,1000]","2400","0","test","4,6","2","","","","",""
"single-stim-button","10","62697","0.0-3.0-5.0","1236","digit-span","true","0","","4616","","","response","","","","","","4616","1000","test","4,6","2","SubmitButton","4616","4","forward","false"
"html-keyboard-response","11","63698","0.0-4.0-0.0","1236","digit-span","true","0","","null","<div class = centerbox><div class = center-text>3 Digits</p></div>","null","test_intro","","","","","","","","","","","","","","",""
"poldrack-multi-stim-multi-response","12","68301","0.0-4.0-1.0","1236","digit-span","true","0","","[-1]","","","stim","","[""<div class = centerbox><div class = digit-span-text>3</div></div>"",""<div class = centerbox><div class = digit-span-text>8</div></div>"",""<div class = centerbox><div class = digit-span-text>6</div></div>""]","[-1]","none","[1000,1000,1000]","3600","0","test","3,8,6","3","","","","",""
"single-stim-button","13","75012","0.0-4.0-2.0","1236","digit-span","true","0","","6710","","","response","","","","","","6710","1000","test","3,8,6","3","SubmitButton","6710","3,8,6","forward","true"
"html-keyboard-response","14","76013","0.0-4.0-3.0","1236","digit-span","true","0","","null","<div class = centerbox><div class = center-text>3 Digits</p></div>","null","test_intro","","","","","","","","","","","","","","",""
"poldrack-multi-stim-multi-response","15","80618","0.0-4.0-4.0","1236","digit-span","true","0","","[-1]","","","stim","","[""<div class = centerbox><div class = digit-span-text>6</div></div>"",""<div class = centerbox><div class = digit-span-text>1</div></div>"",""<div class = centerbox><div class = digit-span-text>2</div></div>""]","[-1]","none","[1000,1000,1000]","3600","0","test","6,1,2","3","","","","",""
"single-stim-button","16","104366","0.0-4.0-5.0","1236","digit-span","true","0","","23747","","","response","","","","","","23747","1000","test","6,1,2","3","SubmitButton","23747","6,1,2","forward","true"
"html-keyboard-response","17","105368","0.0-5.0-0.0","1236","digit-span","true","0","","null","<div class = centerbox><div class = center-text>4 Digits</p></div>","null","test_intro","","","","","","","","","","","","","","",""
"poldrack-multi-stim-multi-response","18","111173","0.0-5.0-1.0","1236","digit-span","true","0","","[-1]","","","stim","","[""<div class = centerbox><div class = digit-span-text>3</div></div>"",""<div class = centerbox><div class = digit-span-text>4</div></div>"",""<div class = centerbox><div class = digit-span-text>1</div></div>"",""<div class = centerbox><div class = digit-span-text>7</div></div>""]","[-1]","none","[1000,1000,1000,1000]","4800","0","test","3,4,1,7","4","","","","",""
"single-stim-button","19","126004","0.0-5.0-2.0","1236","digit-span","true","0","","14831","","","response","","","","","","14831","1000","test","3,4,1,7","4","SubmitButton","14831","3,4,1,7","forward","true"
"html-keyboard-response","20","127006","0.0-5.0-3.0","1236","digit-span","true","0","","null","<div class = centerbox><div class = center-text>4 Digits</p></div>","null","test_intro","","","","","","","","","","","","","","",""
"poldrack-multi-stim-multi-response","21","132808","0.0-5.0-4.0","1236","digit-span","true","0","","[-1]","","","stim","","[""<div class = centerbox><div class = digit-span-text>6</div></div>"",""<div class = centerbox><div class = digit-span-text>1</div></div>"",""<div class = centerbox><div class = digit-span-text>5</div></div>"",""<div class = centerbox><div class = digit-span-text>8</div></div>""]","[-1]","none","[1000,1000,1000,1000]","4800","0","test","6,1,5,8","4","","","","",""
"single-stim-button","22","147334","0.0-5.0-5.0","1236","digit-span","true","0","","14525","","","response","","","","","","14525","1000","test","6,1,5,8","4","SubmitButton","14525","6,1,5,8","forward","true"
"html-keyboard-response","23","148336","0.0-6.0-0.0","1236","digit-span","true","0","","null","<div class = centerbox><div class = center-text>5 Digits</p></div>","null","test_intro","","","","","","","","","","","","","","",""
"poldrack-multi-stim-multi-response","24","155341","0.0-6.0-1.0","1236","digit-span","true","0","","[-1]","","","stim","","[""<div class = centerbox><div class = digit-span-text>8</div></div>"",""<div class = centerbox><div class = digit-span-text>4</div></div>"",""<div class = centerbox><div class = digit-span-text>2</div></div>"",""<div class = centerbox><div class = digit-span-text>3</div></div>"",""<div class = centerbox><div class = digit-span-text>9</div></div>""]","[-1]","none","[1000,1000,1000,1000,1000]","6000","0","test","8,4,2,3,9","5","","","","",""
"single-stim-button","25","167938","0.0-6.0-2.0","1236","digit-span","true","0","","12596","","","response","","","","","","12596","1000","test","8,4,2,3,9","5","SubmitButton","12596","8,4,2,3,9","forward","true"
"html-keyboard-response","26","168940","0.0-6.0-3.0","1236","digit-span","true","0","","null","<div class = centerbox><div class = center-text>5 Digits</p></div>","null","test_intro","","","","","","","","","","","","","","",""
"poldrack-multi-stim-multi-response","27","175942","0.0-6.0-4.0","1236","digit-span","true","0","","[-1]","","","stim","","[""<div class = centerbox><div class = digit-span-text>5</div></div>"",""<div class = centerbox><div class = digit-span-text>2</div></div>"",""<div class = centerbox><div class = digit-span-text>1</div></div>"",""<div class = centerbox><div class = digit-span-text>8</div></div>"",""<div class = centerbox><div class = digit-span-text>6</div></div>""]","[-1]","none","[1000,1000,1000,1000,1000]","6000","0","test","5,2,1,8,6","5","","","","",""
"single-stim-button","28","189101","0.0-6.0-5.0","1236","digit-span","true","0","","13158","","","response","","","","","","13158","1000","test","5,2,1,8,6","5","SubmitButton","13158","5,2,1,8,6","forward","true"
"html-keyboard-response","29","190103","0.0-7.0-0.0","1236","digit-span","true","0","","null","<div class = centerbox><div class = center-text>6 Digits</p></div>","null","test_intro","","","","","","","","","","","","","","",""
"poldrack-multi-stim-multi-response","30","198306","0.0-7.0-1.0","1236","digit-span","true","0","","[-1]","","","stim","","[""<div class = centerbox><div class = digit-span-text>3</div></div>"",""<div class = centerbox><div class = digit-span-text>8</div></div>"",""<div class = centerbox><div class = digit-span-text>9</div></div>"",""<div class = centerbox><div class = digit-span-text>1</div></div>"",""<div class = centerbox><div class = digit-span-text>7</div></div>"",""<div class = centerbox><div class = digit-span-text>4</div></div>""]","[-1]","none","[1000,1000,1000,1000,1000,1000]","7200","0","test","3,8,9,1,7,4","6","","","","",""
"single-stim-button","31","219801","0.0-7.0-2.0","1236","digit-span","true","0","","21494","","","response","","","","","","21494","1000","test","3,8,9,1,7,4","6","SubmitButton","21494","3,8,9,1,7,4","forward","true"
"html-keyboard-response","32","220802","0.0-7.0-3.0","1236","digit-span","true","0","","null","<div class = centerbox><div class = center-text>6 Digits</p></div>","null","test_intro","","","","","","","","","","","","","","",""
"poldrack-multi-stim-multi-response","33","229008","0.0-7.0-4.0","1236","digit-span","true","0","","[-1]","","","stim","","[""<div class = centerbox><div class = digit-span-text>7</div></div>"",""<div class = centerbox><div class = digit-span-text>9</div></div>"",""<div class = centerbox><div class = digit-span-text>6</div></div>"",""<div class = centerbox><div class = digit-span-text>4</div></div>"",""<div class = centerbox><div class = digit-span-text>8</div></div>"",""<div class = centerbox><div class = digit-span-text>3</div></div>""]","[-1]","none","[1000,1000,1000,1000,1000,1000]","7200","0","test","7,9,6,4,8,3","6","","","","",""
"single-stim-button","34","251516","0.0-7.0-5.0","1236","digit-span","true","0","","22508","","","response","","","","","","22508","1000","test","7,9,6,4,8,3","6","SubmitButton","22508","7,9,6,4,8,3","forward","true"
"html-keyboard-response","35","252518","0.0-8.0-0.0","1236","digit-span","true","0","","null","<div class = centerbox><div class = center-text>7 Digits</p></div>","null","test_intro","","","","","","","","","","","","","","",""
"poldrack-multi-stim-multi-response","36","261922","0.0-8.0-1.0","1236","digit-span","true","0","","[-1]","","","stim","","[""<div class = centerbox><div class = digit-span-text>5</div></div>"",""<div class = centerbox><div class = digit-span-text>1</div></div>"",""<div class = centerbox><div class = digit-span-text>7</div></div>"",""<div class = centerbox><div class = digit-span-text>4</div></div>"",""<div class = centerbox><div class = digit-span-text>2</div></div>"",""<div class = centerbox><div class = digit-span-text>3</div></div>"",""<div class = centerbox><div class = digit-span-text>8</div></div>""]","[-1]","none","[1000,1000,1000,1000,1000,1000,1000]","8400","0","test","5,1,7,4,2,3,8","7","","","","",""
"single-stim-button","37","303029","0.0-8.0-2.0","1236","digit-span","true","0","","41106","","","response","","","","","","41106","1000","test","5,1,7,4,2,3,8","7","SubmitButton","41106","5,1,7,4,2,3,8","forward","true"
"html-keyboard-response","38","304031","0.0-8.0-3.0","1236","digit-span","true","0","","null","<div class = centerbox><div class = center-text>7 Digits</p></div>","null","test_intro","","","","","","","","","","","","","","",""
"poldrack-multi-stim-multi-response","39","313433","0.0-8.0-4.0","1236","digit-span","true","0","","[-1]","","","stim","","[""<div class = centerbox><div class = digit-span-text>9</div></div>"",""<div class = centerbox><div class = digit-span-text>8</div></div>"",""<div class = centerbox><div class = digit-span-text>5</div></div>"",""<div class = centerbox><div class = digit-span-text>2</div></div>"",""<div class = centerbox><div class = digit-span-text>1</div></div>"",""<div class = centerbox><div class = digit-span-text>6</div></div>"",""<div class = centerbox><div class = digit-span-text>3</div></div>""]","[-1]","none","[1000,1000,1000,1000,1000,1000,1000]","8400","0","test","9,8,5,2,1,6,3","7","","","","",""
"single-stim-button","40","360445","0.0-8.0-5.0","1236","digit-span","true","0","","47011","","","response","","","","","","47011","1000","test","9,8,5,2,1,6,3","7","SubmitButton","47011","7,9,6,4,8,3","forward","false"
"html-keyboard-response","41","361446","0.0-9.0-0.0","1236","digit-span","true","0","","null","<div class = centerbox><div class = center-text>8 Digits</p></div>","null","test_intro","","","","","","","","","","","","","","",""
"poldrack-multi-stim-multi-response","42","372049","0.0-9.0-1.0","1236","digit-span","true","0","","[-1]","","","stim","","[""<div class = centerbox><div class = digit-span-text>1</div></div>"",""<div class = centerbox><div class = digit-span-text>6</div></div>"",""<div class = centerbox><div class = digit-span-text>4</div></div>"",""<div class = centerbox><div class = digit-span-text>5</div></div>"",""<div class = centerbox><div class = digit-span-text>9</div></div>"",""<div class = centerbox><div class = digit-span-text>7</div></div>"",""<div class = centerbox><div class = digit-span-text>6</div></div>"",""<div class = centerbox><div class = digit-span-text>3</div></div>""]","[-1]","none","[1000,1000,1000,1000,1000,1000,1000,1000]","9600","0","test","1,6,4,5,9,7,6,3","8","","","","",""
"single-stim-button","43","397591","0.0-9.0-2.0","1236","digit-span","true","0","","25541","","","response","","","","","","25541","1000","test","1,6,4,5,9,7,6,3","8","SubmitButton","25541","1,6,4,5,9,7,6,3","forward","true"
"html-keyboard-response","44","398593","0.0-9.0-3.0","1236","digit-span","true","0","","null","<div class = centerbox><div class = center-text>8 Digits</p></div>","null","test_intro","","","","","","","","","","","","","","",""
"poldrack-multi-stim-multi-response","45","409195","0.0-9.0-4.0","1236","digit-span","true","0","","[-1]","","","stim","","[""<div class = centerbox><div class = digit-span-text>2</div></div>"",""<div class = centerbox><div class = digit-span-text>9</div></div>"",""<div class = centerbox><div class = digit-span-text>7</div></div>"",""<div class = centerbox><div class = digit-span-text>6</div></div>"",""<div class = centerbox><div class = digit-span-text>3</div></div>"",""<div class = centerbox><div class = digit-span-text>1</div></div>"",""<div class = centerbox><div class = digit-span-text>5</div></div>"",""<div class = centerbox><div class = digit-span-text>4</div></div>""]","[-1]","none","[1000,1000,1000,1000,1000,1000,1000,1000]","9600","0","test","2,9,7,6,3,1,5,4","8","","","","",""
"single-stim-button","46","461531","0.0-9.0-5.0","1236","digit-span","true","0","","52334","","","response","","","","","","52334","1000","test","2,9,7,6,3,1,5,4","8","SubmitButton","52334","2,9,7,6,3,1,5,4","forward","true"
"html-keyboard-response","47","462532","0.0-10.0-0.0","1236","digit-span","true","0","","null","<div class = centerbox><div class = center-text>9 Digits</p></div>","null","test_intro","","","","","","","","","","","","","","",""
"poldrack-multi-stim-multi-response","48","474334","0.0-10.0-1.0","1236","digit-span","true","0","","[-1]","","","stim","","[""<div class = centerbox><div class = digit-span-text>5</div></div>"",""<div class = centerbox><div class = digit-span-text>3</div></div>"",""<div class = centerbox><div class = digit-span-text>8</div></div>"",""<div class = centerbox><div class = digit-span-text>7</div></div>"",""<div class = centerbox><div class = digit-span-text>1</div></div>"",""<div class = centerbox><div class = digit-span-text>2</div></div>"",""<div class = centerbox><div class = digit-span-text>4</div></div>"",""<div class = centerbox><div class = digit-span-text>6</div></div>"",""<div class = centerbox><div class = digit-span-text>9</div></div>""]","[-1]","none","[1000,1000,1000,1000,1000,1000,1000,1000,1000]","10800","0","test","5,3,8,7,1,2,4,6,9","9","","","","",""
"single-stim-button","49","507137","0.0-10.0-2.0","1236","digit-span","true","0","","32802","","","response","","","","","","32802","1000","test","5,3,8,7,1,2,4,6,9","9","SubmitButton","32802","5,3,8,7,1,2,4,6,9","forward","true"
"html-keyboard-response","50","508140","0.0-10.0-3.0","1236","digit-span","true","0","","null","<div class = centerbox><div class = center-text>9 Digits</p></div>","null","test_intro","","","","","","","","","","","","","","",""
"poldrack-multi-stim-multi-response","51","519943","0.0-10.0-4.0","1236","digit-span","true","0","","[-1]","","","stim","","[""<div class = centerbox><div class = digit-span-text>4</div></div>"",""<div class = centerbox><div class = digit-span-text>2</div></div>"",""<div class = centerbox><div class = digit-span-text>6</div></div>"",""<div class = centerbox><div class = digit-span-text>9</div></div>"",""<div class = centerbox><div class = digit-span-text>1</div></div>"",""<div class = centerbox><div class = digit-span-text>7</div></div>"",""<div class = centerbox><div class = digit-span-text>8</div></div>"",""<div class = centerbox><div class = digit-span-text>3</div></div>"",""<div class = centerbox><div class = digit-span-text>5</div></div>""]","[-1]","none","[1000,1000,1000,1000,1000,1000,1000,1000,1000]","10800","0","test","4,2,6,9,1,7,8,3,5","9","","","","",""
"single-stim-button","52","546938","0.0-10.0-5.0","1236","digit-span","true","0","","26994","","","response","","","","","","26994","1000","test","4,2,6,9,1,7,8,3,5","9","SubmitButton","26994","4,2,6,9,1,7,8,3,5","forward","true"
"html-keyboard-response","53","614393","0.0-11.0","1236","digit-span","true","0","","67452.79999999702","<div class = centerbox><p class = block-text>Now, you will see some numbers, but this time you will enter them <strong>backward</strong>.<br><br>For example, you see <strong>“1—5”</strong>, and you will enter <strong>“5—1”</strong>.<br><br><br>Press <strong>""Enter/Return""</strong> to begin.</p></div>","13","start_reverse","","","","","","","","","","","","","","",""
"html-keyboard-response","54","615395","0.0-12.0-0.0","1236","digit-span","true","0","","null","<div class = centerbox><div class = center-text>2 Digits</p></div>","null","test_intro","","","","","","","","","","","","","","",""
"poldrack-multi-stim-multi-response","55","618798","0.0-12.0-1.0","1236","digit-span","true","0","","[-1]","","","stim","","[""<div class = centerbox><div class = digit-span-text>8</div></div>"",""<div class = centerbox><div class = digit-span-text>2</div></div>""]","[-1]","none","[1000,1000]","2400","0","test","8,2","2","","","","",""
"single-stim-button","56","624181","0.0-12.0-2.0","1236","digit-span","true","0","","5383","","","response","","","","","","5383","1000","test","8,2","2","SubmitButton","5383","2,8","practice","true"
"html-keyboard-response","57","634183","0.0-12.0-3.0","1236","digit-span","true","0","","null","<div class = centerbox><div class = center-block-text><span style=""color:green"">Correct!</span></div></div>","null","feedback","","","","","","","","","","","","","","",""
"html-keyboard-response","58","635185","0.0-12.0-4.0","1236","digit-span","true","0","","null","<div class = centerbox><div class = center-text>2 Digits</p></div>","null","test_intro","","","","","","","","","","","","","","",""
"poldrack-multi-stim-multi-response","59","638589","0.0-12.0-5.0","1236","digit-span","true","0","","[-1]","","","stim","","[""<div class = centerbox><div class = digit-span-text>5</div></div>"",""<div class = centerbox><div class = digit-span-text>6</div></div>""]","[-1]","none","[1000,1000]","2400","0","test","5,6","2","","","","",""
"single-stim-button","60","643539","0.0-12.0-6.0","1236","digit-span","true","0","","4949","","","response","","","","","","4949","1000","test","5,6","2","SubmitButton","4949","6,5","practice","true"
"html-keyboard-response","61","644540","0.0-13.0-0.0","1236","digit-span","true","0","","null","<div class = centerbox><div class = center-text>2 Digits</p></div>","null","test_intro","","","","","","","","","","","","","","",""
"poldrack-multi-stim-multi-response","62","647943","0.0-13.0-1.0","1236","digit-span","true","0","","[-1]","","","stim","","[""<div class = centerbox><div class = digit-span-text>2</div></div>"",""<div class = centerbox><div class = digit-span-text>5</div></div>""]","[-1]","none","[1000,1000]","2400","0","test","2,5","2","","","","",""
"single-stim-button","63","661151","0.0-13.0-2.0","1236","digit-span","true","0","","13207","","","response","","","","","","13207","1000","test","2,5","2","SubmitButton","13207","3,5","reverse","false"
"html-keyboard-response","64","662155","0.0-13.0-3.0","1236","digit-span","true","0","","null","<div class = centerbox><div class = center-text>2 Digits</p></div>","null","test_intro","","","","","","","","","","","","","","",""
"poldrack-multi-stim-multi-response","65","665558","0.0-13.0-4.0","1236","digit-span","true","0","","[-1]","","","stim","","[""<div class = centerbox><div class = digit-span-text>6</div></div>"",""<div class = centerbox><div class = digit-span-text>3</div></div>""]","[-1]","none","[1000,1000]","2400","0","test","6,3","2","","","","",""
"single-stim-button","66","670492","0.0-13.0-5.0","1236","digit-span","true","0","","4932","","","response","","","","","","4932","1000","test","6,3","2","SubmitButton","4932","3,6","reverse","true"
"html-keyboard-response","67","671494","0.0-14.0-0.0","1236","digit-span","true","0","","null","<div class = centerbox><div class = center-text>3 Digits</p></div>","null","test_intro","","","","","","","","","","","","","","",""
"poldrack-multi-stim-multi-response","68","676097","0.0-14.0-1.0","1236","digit-span","true","0","","[-1]","","","stim","","[""<div class = centerbox><div class = digit-span-text>5</div></div>"",""<div class = centerbox><div class = digit-span-text>7</div></div>"",""<div class = centerbox><div class = digit-span-text>4</div></div>""]","[-1]","none","[1000,1000,1000]","3600","0","test","5,7,4","3","","","","",""
"single-stim-button","69","682665","0.0-14.0-2.0","1236","digit-span","true","0","","6567","","","response","","","","","","6567","1000","test","5,7,4","3","SubmitButton","6567","4,5,7","reverse","false"
"html-keyboard-response","70","683667","0.0-14.0-3.0","1236","digit-span","true","0","","null","<div class = centerbox><div class = center-text>3 Digits</p></div>","null","test_intro","","","","","","","","","","","","","","",""
"poldrack-multi-stim-multi-response","71","688271","0.0-14.0-4.0","1236","digit-span","true","0","","[-1]","","","stim","","[""<div class = centerbox><div class = digit-span-text>2</div></div>"",""<div class = centerbox><div class = digit-span-text>5</div></div>"",""<div class = centerbox><div class = digit-span-text>9</div></div>""]","[-1]","none","[1000,1000,1000]","3600","0","test","2,5,9","3","","","","",""
"single-stim-button","72","696093","0.0-14.0-5.0","1236","digit-span","true","0","","7821","","","response","","","","","","7821","1000","test","2,5,9","3","SubmitButton","7821","9,5,2","reverse","true"
"html-keyboard-response","73","697095","0.0-15.0-0.0","1236","digit-span","true","0","","null","<div class = centerbox><div class = center-text>4 Digits</p></div>","null","test_intro","","","","","","","","","","","","","","",""
"poldrack-multi-stim-multi-response","74","702905","0.0-15.0-1.0","1236","digit-span","true","0","","[-1]","","","stim","","[""<div class = centerbox><div class = digit-span-text>7</div></div>"",""<div class = centerbox><div class = digit-span-text>2</div></div>"",""<div class = centerbox><div class = digit-span-text>9</div></div>"",""<div class = centerbox><div class = digit-span-text>6</div></div>""]","[-1]","none","[1000,1000,1000,1000]","4800","0","test","7,2,9,6","4","","","","",""
"single-stim-button","75","726099","0.0-15.0-2.0","1236","digit-span","true","0","","23194","","","response","","","","","","23194","1000","test","7,2,9,6","4","SubmitButton","23194","6,9,2,7","reverse","true"
"html-keyboard-response","76","727101","0.0-15.0-3.0","1236","digit-span","true","0","","null","<div class = centerbox><div class = center-text>4 Digits</p></div>","null","test_intro","","","","","","","","","","","","","","",""
"poldrack-multi-stim-multi-response","77","732904","0.0-15.0-4.0","1236","digit-span","true","0","","[-1]","","","stim","","[""<div class = centerbox><div class = digit-span-text>8</div></div>"",""<div class = centerbox><div class = digit-span-text>4</div></div>"",""<div class = centerbox><div class = digit-span-text>9</div></div>"",""<div class = centerbox><div class = digit-span-text>3</div></div>""]","[-1]","none","[1000,1000,1000,1000]","4800","0","test","8,4,9,3","4","","","","",""
"single-stim-button","78","744758","0.0-15.0-5.0","1236","digit-span","true","0","","11854","","","response","","","","","","11854","1000","test","8,4,9,3","4","SubmitButton","11854","8,4,9,3","reverse","false"
"html-keyboard-response","79","745760","0.0-16.0-0.0","1236","digit-span","true","0","","null","<div class = centerbox><div class = center-text>5 Digits</p></div>","null","test_intro","","","","","","","","","","","","","","",""
"poldrack-multi-stim-multi-response","80","752764","0.0-16.0-1.0","1236","digit-span","true","0","","[-1]","","","stim","","[""<div class = centerbox><div class = digit-span-text>4</div></div>"",""<div class = centerbox><div class = digit-span-text>1</div></div>"",""<div class = centerbox><div class = digit-span-text>3</div></div>"",""<div class = centerbox><div class = digit-span-text>5</div></div>"",""<div class = centerbox><div class = digit-span-text>7</div></div>""]","[-1]","none","[1000,1000,1000,1000,1000]","6000","0","test","4,1,3,5,7","5","","","","",""
"single-stim-button","81","779699","0.0-16.0-2.0","1236","digit-span","true","0","","26935","","","response","","","","","","26935","1000","test","4,1,3,5,7","5","SubmitButton","26935","7,5,3,1,4","reverse","true"
"html-keyboard-response","82","780703","0.0-16.0-3.0","1236","digit-span","true","0","","null","<div class = centerbox><div class = center-text>5 Digits</p></div>","null","test_intro","","","","","","","","","","","","","","",""
"poldrack-multi-stim-multi-response","83","787706","0.0-16.0-4.0","1236","digit-span","true","0","","[-1]","","","stim","","[""<div class = centerbox><div class = digit-span-text>9</div></div>"",""<div class = centerbox><div class = digit-span-text>7</div></div>"",""<div class = centerbox><div class = digit-span-text>8</div></div>"",""<div class = centerbox><div class = digit-span-text>5</div></div>"",""<div class = centerbox><div class = digit-span-text>2</div></div>""]","[-1]","none","[1000,1000,1000,1000,1000]","6000","0","test","9,7,8,5,2","5","","","","",""
"single-stim-button","84","815759","0.0-16.0-5.0","1236","digit-span","true","0","","28053","","","response","","","","","","28053","1000","test","9,7,8,5,2","5","SubmitButton","28053","2,5,8,7,9","reverse","true"
"html-keyboard-response","85","816762","0.0-17.0-0.0","1236","digit-span","true","0","","null","<div class = centerbox><div class = center-text>6 Digits</p></div>","null","test_intro","","","","","","","","","","","","","","",""
"poldrack-multi-stim-multi-response","86","824965","0.0-17.0-1.0","1236","digit-span","true","0","","[-1]","","","stim","","[""<div class = centerbox><div class = digit-span-text>1</div></div>"",""<div class = centerbox><div class = digit-span-text>6</div></div>"",""<div class = centerbox><div class = digit-span-text>5</div></div>"",""<div class = centerbox><div class = digit-span-text>2</div></div>"",""<div class = centerbox><div class = digit-span-text>9</div></div>"",""<div class = centerbox><div class = digit-span-text>8</div></div>""]","[-1]","none","[1000,1000,1000,1000,1000,1000]","7200","0","test","1,6,5,2,9,8","6","","","","",""
"single-stim-button","87","840422","0.0-17.0-2.0","1236","digit-span","true","0","","15455","","","response","","","","","","15455","1000","test","1,6,5,2,9,8","6","SubmitButton","15455","8,9,2,5,6,1","reverse","true"
"html-keyboard-response","88","841424","0.0-17.0-3.0","1236","digit-span","true","0","","null","<div class = centerbox><div class = center-text>6 Digits</p></div>","null","test_intro","","","","","","","","","","","","","","",""
"poldrack-multi-stim-multi-response","89","849629","0.0-17.0-4.0","1236","digit-span","true","0","","[-1]","","","stim","","[""<div class = centerbox><div class = digit-span-text>3</div></div>"",""<div class = centerbox><div class = digit-span-text>6</div></div>"",""<div class = centerbox><div class = digit-span-text>7</div></div>"",""<div class = centerbox><div class = digit-span-text>1</div></div>"",""<div class = centerbox><div class = digit-span-text>9</div></div>"",""<div class = centerbox><div class = digit-span-text>4</div></div>""]","[-1]","none","[1000,1000,1000,1000,1000,1000]","7200","0","test","3,6,7,1,9,4","6","","","","",""
"single-stim-button","90","878699","0.0-17.0-5.0","1236","digit-span","true","0","","29069","","","response","","","","","","29069","1000","test","3,6,7,1,9,4","6","SubmitButton","29069","4,9,1,7,6,3","reverse","true"
"html-keyboard-response","91","879701","0.0-18.0-0.0","1236","digit-span","true","0","","null","<div class = centerbox><div class = center-text>7 Digits</p></div>","null","test_intro","","","","","","","","","","","","","","",""
"poldrack-multi-stim-multi-response","92","889103","0.0-18.0-1.0","1236","digit-span","true","0","","[-1]","","","stim","","[""<div class = centerbox><div class = digit-span-text>8</div></div>"",""<div class = centerbox><div class = digit-span-text>5</div></div>"",""<div class = centerbox><div class = digit-span-text>9</div></div>"",""<div class = centerbox><div class = digit-span-text>2</div></div>"",""<div class = centerbox><div class = digit-span-text>3</div></div>"",""<div class = centerbox><div class = digit-span-text>4</div></div>"",""<div class = centerbox><div class = digit-span-text>2</div></div>""]","[-1]","none","[1000,1000,1000,1000,1000,1000,1000]","8400","0","test","8,5,9,2,3,4,2","7","","","","",""
"single-stim-button","93","923490","0.0-18.0-2.0","1236","digit-span","true","0","","34387","","","response","","","","","","34387","1000","test","8,5,9,2,3,4,2","7","SubmitButton","34387","2,4,3,9,5,8","reverse","false"
"html-keyboard-response","94","924492","0.0-18.0-3.0","1236","digit-span","true","0","","null","<div class = centerbox><div class = center-text>7 Digits</p></div>","null","test_intro","","","","","","","","","","","","","","",""
"poldrack-multi-stim-multi-response","95","933894","0.0-18.0-4.0","1236","digit-span","true","0","","[-1]","","","stim","","[""<div class = centerbox><div class = digit-span-text>4</div></div>"",""<div class = centerbox><div class = digit-span-text>5</div></div>"",""<div class = centerbox><div class = digit-span-text>7</div></div>"",""<div class = centerbox><div class = digit-span-text>9</div></div>"",""<div class = centerbox><div class = digit-span-text>2</div></div>"",""<div class = centerbox><div class = digit-span-text>8</div></div>"",""<div class = centerbox><div class = digit-span-text>1</div></div>""]","[-1]","none","[1000,1000,1000,1000,1000,1000,1000]","8400","0","test","4,5,7,9,2,8,1","7","","","","",""
"single-stim-button","96","966627","0.0-18.0-5.0","1236","digit-span","true","0","","32732","","","response","","","","","","32732","1000","test","4,5,7,9,2,8,1","7","SubmitButton","32732","1,8,2,9,7,5,4","reverse","true"
"html-keyboard-response","97","967629","0.0-19.0-0.0","1236","digit-span","true","0","","null","<div class = centerbox><div class = center-text>8 Digits</p></div>","null","test_intro","","","","","","","","","","","","","","",""
"poldrack-multi-stim-multi-response","98","978239","0.0-19.0-1.0","1236","digit-span","true","0","","[-1]","","","stim","","[""<div class = centerbox><div class = digit-span-text>6</div></div>"",""<div class = centerbox><div class = digit-span-text>9</div></div>"",""<div class = centerbox><div class = digit-span-text>1</div></div>"",""<div class = centerbox><div class = digit-span-text>6</div></div>"",""<div class = centerbox><div class = digit-span-text>3</div></div>"",""<div class = centerbox><div class = digit-span-text>2</div></div>"",""<div class = centerbox><div class = digit-span-text>5</div></div>"",""<div class = centerbox><div class = digit-span-text>8</div></div>""]","[-1]","none","[1000,1000,1000,1000,1000,1000,1000,1000]","9600","0","test","6,9,1,6,3,2,5,8","8","","","","",""
"single-stim-button","99","1012865","0.0-19.0-2.0","1236","digit-span","true","0","","34624","","","response","","","","","","34624","1000","test","6,9,1,6,3,2,5,8","8","SubmitButton","34624","8,5,2,3,6,1,9,6","reverse","true"
"html-keyboard-response","100","1013867","0.0-19.0-3.0","1236","digit-span","true","0","","null","<div class = centerbox><div class = center-text>8 Digits</p></div>","null","test_intro","","","","","","","","","","","","","","",""
"poldrack-multi-stim-multi-response","101","1024471","0.0-19.0-4.0","1236","digit-span","true","0","","[-1]","","","stim","","[""<div class = centerbox><div class = digit-span-text>3</div></div>"",""<div class = centerbox><div class = digit-span-text>1</div></div>"",""<div class = centerbox><div class = digit-span-text>7</div></div>"",""<div class = centerbox><div class = digit-span-text>9</div></div>"",""<div class = centerbox><div class = digit-span-text>5</div></div>"",""<div class = centerbox><div class = digit-span-text>4</div></div>"",""<div class = centerbox><div class = digit-span-text>8</div></div>"",""<div class = centerbox><div class = digit-span-text>2</div></div>""]","[-1]","none","[1000,1000,1000,1000,1000,1000,1000,1000]","9600","0","test","3,1,7,9,5,4,8,2","8","","","","",""
"single-stim-button","102","1050237","0.0-19.0-5.0","1236","digit-span","true","0","","25765","","","response","","","","","","25765","1000","test","3,1,7,9,5,4,8,2","8","SubmitButton","25765","2,8,4,5,9,7,1,3","reverse","true"
"image-keyboard-response","103","1058630","0.0-20.0","1236","digit-span","true","0","","8392.10000000894","img/trophy2.jpeg","13","end","","","","","","","","","","","","","","",""
