"trial_type","trial_index","time_elapsed","internal_node_id","subject","order","exp_id","full_screen","focus_shifts","success","rt","stimulus","key_press","trial_id","view_history","stimuli","key_presses","possible_responses","stim_durations","block_duration","timing_post_trial","exp_stage","sequence","num_digits","mouse_click","stim_duration","response","condition","correct"
"pavlovia","0","2506","0.0-0.0","2092","2","digit-span","false","0","","","","","","","","","","","","","","","","","","","",""
"fullscreen","1","5432","0.0-1.0","2092","2","digit-span","true","0","true","","","","","","","","","","","","","","","","","","",""
"html-keyboard-response","2","8939","0.0-2.0-0.0","2092","2","digit-span","true","0","","3506.100000023842","<div class = centerbox><p class = center-block-text>Welcome to the number game! It will take less than 5 minutes. Press <strong>""Enter/Return""</strong> to begin.</p></div>","13","instruction","","","","","","","","","","","","","","",""
"instructions","3","12094","0.0-2.0-1.0","2092","2","digit-span","true","0","","3154.5","","","instruction","[{""page_index"":0,""viewing_time"":3154.2000000476837}]","","","","","","","","","","","","","",""
"instructions","4","18175","0.0-2.0-2.0","2092","2","digit-span","true","0","","5079.300000011921","","","instruction","[{""page_index"":0,""viewing_time"":5079.100000023842}]","","","","","","","","","","","","","",""
"html-keyboard-response","5","20183","0.0-3.0-0.0","2092","2","digit-span","true","0","","null","<div class = centerbox><div class = center-text>2 Digits</p></div>","null","test_intro","","","","","","","","","","","","","","",""
"poldrack-multi-stim-multi-response","6","23587","0.0-3.0-1.0","2092","2","digit-span","true","0","","[-1]","","","stim","","[""<div class = centerbox><div class = digit-span-text>2</div></div>"",""<div class = centerbox><div class = digit-span-text>9</div></div>""]","[-1]","none","[1000,1000]","2400","0","test","2,9","2","","","","",""
"single-stim-button","7","28417","0.0-3.0-2.0","2092","2","digit-span","true","0","","4828","","","response","","","","","","4828","1000","test","2,9","2","SubmitButton","4828","2,9","forward","true"
"html-keyboard-response","8","29420","0.0-3.0-3.0","2092","2","digit-span","true","0","","null","<div class = centerbox><div class = center-text>2 Digits</p></div>","null","test_intro","","","","","","","","","","","","","","",""
"poldrack-multi-stim-multi-response","9","32822","0.0-3.0-4.0","2092","2","digit-span","true","0","","[-1]","","","stim","","[""<div class = centerbox><div class = digit-span-text>4</div></div>"",""<div class = centerbox><div class = digit-span-text>6</div></div>""]","[-1]","none","[1000,1000]","2400","0","test","4,6","2","","","","",""
"single-stim-button","10","36056","0.0-3.0-5.0","2092","2","digit-span","true","0","","3232","","","response","","","","","","3232","1000","test","4,6","2","SubmitButton","3232","4,6","forward","true"
"html-keyboard-response","11","37059","0.0-4.0-0.0","2092","2","digit-span","true","0","","null","<div class = centerbox><div class = center-text>3 Digits</p></div>","null","test_intro","","","","","","","","","","","","","","",""
"poldrack-multi-stim-multi-response","12","41663","0.0-4.0-1.0","2092","2","digit-span","true","0","","[-1]","","","stim","","[""<div class = centerbox><div class = digit-span-text>3</div></div>"",""<div class = centerbox><div class = digit-span-text>8</div></div>"",""<div class = centerbox><div class = digit-span-text>6</div></div>""]","[-1]","none","[1000,1000,1000]","3600","0","test","3,8,6","3","","","","",""
"single-stim-button","13","46862","0.0-4.0-2.0","2092","2","digit-span","true","0","","5199","","","response","","","","","","5199","1000","test","3,8,6","3","SubmitButton","5199","3,8,6","forward","true"
"html-keyboard-response","14","47863","0.0-4.0-3.0","2092","2","digit-span","true","0","","null","<div class = centerbox><div class = center-text>3 Digits</p></div>","null","test_intro","","","","","","","","","","","","","","",""
"poldrack-multi-stim-multi-response","15","52466","0.0-4.0-4.0","2092","2","digit-span","true","0","","[-1]","","","stim","","[""<div class = centerbox><div class = digit-span-text>6</div></div>"",""<div class = centerbox><div class = digit-span-text>1</div></div>"",""<div class = centerbox><div class = digit-span-text>2</div></div>""]","[-1]","none","[1000,1000,1000]","3600","0","test","6,1,2","3","","","","",""
"single-stim-button","16","56120","0.0-4.0-5.0","2092","2","digit-span","true","0","","3654","","","response","","","","","","3654","1000","test","6,1,2","3","SubmitButton","3654","6,1,2","forward","true"
"html-keyboard-response","17","57121","0.0-5.0-0.0","2092","2","digit-span","true","0","","null","<div class = centerbox><div class = center-text>4 Digits</p></div>","null","test_intro","","","","","","","","","","","","","","",""
"poldrack-multi-stim-multi-response","18","62925","0.0-5.0-1.0","2092","2","digit-span","true","0","","[-1]","","","stim","","[""<div class = centerbox><div class = digit-span-text>3</div></div>"",""<div class = centerbox><div class = digit-span-text>4</div></div>"",""<div class = centerbox><div class = digit-span-text>1</div></div>"",""<div class = centerbox><div class = digit-span-text>7</div></div>""]","[-1]","none","[1000,1000,1000,1000]","4800","0","test","3,4,1,7","4","","","","",""
"single-stim-button","19","67505","0.0-5.0-2.0","2092","2","digit-span","true","0","","4579","","","response","","","","","","4579","1000","test","3,4,1,7","4","SubmitButton","4579","3,4,1,7","forward","true"
"html-keyboard-response","20","68506","0.0-5.0-3.0","2092","2","digit-span","true","0","","null","<div class = centerbox><div class = center-text>4 Digits</p></div>","null","test_intro","","","","","","","","","","","","","","",""
"poldrack-multi-stim-multi-response","21","74310","0.0-5.0-4.0","2092","2","digit-span","true","0","","[-1]","","","stim","","[""<div class = centerbox><div class = digit-span-text>6</div></div>"",""<div class = centerbox><div class = digit-span-text>1</div></div>"",""<div class = centerbox><div class = digit-span-text>5</div></div>"",""<div class = centerbox><div class = digit-span-text>8</div></div>""]","[-1]","none","[1000,1000,1000,1000]","4800","0","test","6,1,5,8","4","","","","",""
"single-stim-button","22","77936","0.0-5.0-5.0","2092","2","digit-span","true","0","","3626","","","response","","","","","","3626","1000","test","6,1,5,8","4","SubmitButton","3626","6,1,5,8","forward","true"
"html-keyboard-response","23","78938","0.0-6.0-0.0","2092","2","digit-span","true","0","","null","<div class = centerbox><div class = center-text>5 Digits</p></div>","null","test_intro","","","","","","","","","","","","","","",""
"poldrack-multi-stim-multi-response","24","85941","0.0-6.0-1.0","2092","2","digit-span","true","0","","[-1]","","","stim","","[""<div class = centerbox><div class = digit-span-text>8</div></div>"",""<div class = centerbox><div class = digit-span-text>4</div></div>"",""<div class = centerbox><div class = digit-span-text>2</div></div>"",""<div class = centerbox><div class = digit-span-text>3</div></div>"",""<div class = centerbox><div class = digit-span-text>9</div></div>""]","[-1]","none","[1000,1000,1000,1000,1000]","6000","0","test","8,4,2,3,9","5","","","","",""
"single-stim-button","25","91644","0.0-6.0-2.0","2092","2","digit-span","true","0","","5701","","","response","","","","","","5701","1000","test","8,4,2,3,9","5","SubmitButton","5701","8,4,2,3,9","forward","true"
"html-keyboard-response","26","92646","0.0-6.0-3.0","2092","2","digit-span","true","0","","null","<div class = centerbox><div class = center-text>5 Digits</p></div>","null","test_intro","","","","","","","","","","","","","","",""
"poldrack-multi-stim-multi-response","27","99649","0.0-6.0-4.0","2092","2","digit-span","true","0","","[-1]","","","stim","","[""<div class = centerbox><div class = digit-span-text>5</div></div>"",""<div class = centerbox><div class = digit-span-text>2</div></div>"",""<div class = centerbox><div class = digit-span-text>1</div></div>"",""<div class = centerbox><div class = digit-span-text>8</div></div>"",""<div class = centerbox><div class = digit-span-text>6</div></div>""]","[-1]","none","[1000,1000,1000,1000,1000]","6000","0","test","5,2,1,8,6","5","","","","",""
"single-stim-button","28","104878","0.0-6.0-5.0","2092","2","digit-span","true","0","","5228","","","response","","","","","","5228","1000","test","5,2,1,8,6","5","SubmitButton","5228","5,2,1,8,6","forward","true"
"html-keyboard-response","29","105880","0.0-7.0-0.0","2092","2","digit-span","true","0","","null","<div class = centerbox><div class = center-text>6 Digits</p></div>","null","test_intro","","","","","","","","","","","","","","",""
"poldrack-multi-stim-multi-response","30","114083","0.0-7.0-1.0","2092","2","digit-span","true","0","","[-1]","","","stim","","[""<div class = centerbox><div class = digit-span-text>3</div></div>"",""<div class = centerbox><div class = digit-span-text>8</div></div>"",""<div class = centerbox><div class = digit-span-text>9</div></div>"",""<div class = centerbox><div class = digit-span-text>1</div></div>"",""<div class = centerbox><div class = digit-span-text>7</div></div>"",""<div class = centerbox><div class = digit-span-text>4</div></div>""]","[-1]","none","[1000,1000,1000,1000,1000,1000]","7200","0","test","3,8,9,1,7,4","6","","","","",""
"single-stim-button","31","122057","0.0-7.0-2.0","2092","2","digit-span","true","0","","7974","","","response","","","","","","7974","1000","test","3,8,9,1,7,4","6","SubmitButton","7974","3,1,9,8,7,4","forward","false"
"html-keyboard-response","32","123059","0.0-7.0-3.0","2092","2","digit-span","true","0","","null","<div class = centerbox><div class = center-text>6 Digits</p></div>","null","test_intro","","","","","","","","","","","","","","",""
"poldrack-multi-stim-multi-response","33","131261","0.0-7.0-4.0","2092","2","digit-span","true","0","","[-1]","","","stim","","[""<div class = centerbox><div class = digit-span-text>7</div></div>"",""<div class = centerbox><div class = digit-span-text>9</div></div>"",""<div class = centerbox><div class = digit-span-text>6</div></div>"",""<div class = centerbox><div class = digit-span-text>4</div></div>"",""<div class = centerbox><div class = digit-span-text>8</div></div>"",""<div class = centerbox><div class = digit-span-text>3</div></div>""]","[-1]","none","[1000,1000,1000,1000,1000,1000]","7200","0","test","7,9,6,4,8,3","6","","","","",""
"single-stim-button","34","140240","0.0-7.0-5.0","2092","2","digit-span","true","0","","8977","","","response","","","","","","8977","1000","test","7,9,6,4,8,3","6","SubmitButton","8977","7,9,6,4,8,3","forward","true"
"html-keyboard-response","35","141243","0.0-8.0-0.0","2092","2","digit-span","true","0","","null","<div class = centerbox><div class = center-text>7 Digits</p></div>","null","test_intro","","","","","","","","","","","","","","",""
"poldrack-multi-stim-multi-response","36","150647","0.0-8.0-1.0","2092","2","digit-span","true","0","","[-1]","","","stim","","[""<div class = centerbox><div class = digit-span-text>5</div></div>"",""<div class = centerbox><div class = digit-span-text>1</div></div>"",""<div class = centerbox><div class = digit-span-text>7</div></div>"",""<div class = centerbox><div class = digit-span-text>4</div></div>"",""<div class = centerbox><div class = digit-span-text>2</div></div>"",""<div class = centerbox><div class = digit-span-text>3</div></div>"",""<div class = centerbox><div class = digit-span-text>8</div></div>""]","[-1]","none","[1000,1000,1000,1000,1000,1000,1000]","8400","0","test","5,1,7,4,2,3,8","7","","","","",""
"single-stim-button","37","172293","0.0-8.0-2.0","2092","2","digit-span","true","0","","21645","","","response","","","","","","21645","1000","test","5,1,7,4,2,3,8","7","SubmitButton","21645","5,1,7,4,2,3,8","forward","true"
"html-keyboard-response","38","173295","0.0-8.0-3.0","2092","2","digit-span","true","0","","null","<div class = centerbox><div class = center-text>7 Digits</p></div>","null","test_intro","","","","","","","","","","","","","","",""
"poldrack-multi-stim-multi-response","39","182698","0.0-8.0-4.0","2092","2","digit-span","true","0","","[-1]","","","stim","","[""<div class = centerbox><div class = digit-span-text>9</div></div>"",""<div class = centerbox><div class = digit-span-text>8</div></div>"",""<div class = centerbox><div class = digit-span-text>5</div></div>"",""<div class = centerbox><div class = digit-span-text>2</div></div>"",""<div class = centerbox><div class = digit-span-text>1</div></div>"",""<div class = centerbox><div class = digit-span-text>6</div></div>"",""<div class = centerbox><div class = digit-span-text>3</div></div>""]","[-1]","none","[1000,1000,1000,1000,1000,1000,1000]","8400","0","test","9,8,5,2,1,6,3","7","","","","",""
"single-stim-button","40","195179","0.0-8.0-5.0","2092","2","digit-span","true","0","","12481","","","response","","","","","","12481","1000","test","9,8,5,2,1,6,3","7","SubmitButton","12481","9,8,5,2,1,8,6","forward","false"
"html-keyboard-response","41","196181","0.0-9.0-0.0","2092","2","digit-span","true","0","","null","<div class = centerbox><div class = center-text>8 Digits</p></div>","null","test_intro","","","","","","","","","","","","","","",""
"poldrack-multi-stim-multi-response","42","206784","0.0-9.0-1.0","2092","2","digit-span","true","0","","[-1]","","","stim","","[""<div class = centerbox><div class = digit-span-text>1</div></div>"",""<div class = centerbox><div class = digit-span-text>6</div></div>"",""<div class = centerbox><div class = digit-span-text>4</div></div>"",""<div class = centerbox><div class = digit-span-text>5</div></div>"",""<div class = centerbox><div class = digit-span-text>9</div></div>"",""<div class = centerbox><div class = digit-span-text>7</div></div>"",""<div class = centerbox><div class = digit-span-text>6</div></div>"",""<div class = centerbox><div class = digit-span-text>3</div></div>""]","[-1]","none","[1000,1000,1000,1000,1000,1000,1000,1000]","9600","0","test","1,6,4,5,9,7,6,3","8","","","","",""
"single-stim-button","43","234311","0.0-9.0-2.0","2092","2","digit-span","true","0","","27525","","","response","","","","","","27525","1000","test","1,6,4,5,9,7,6,3","8","SubmitButton","27525","1,6,5,4,9,8,3","forward","false"
"html-keyboard-response","44","235313","0.0-9.0-3.0","2092","2","digit-span","true","0","","null","<div class = centerbox><div class = center-text>8 Digits</p></div>","null","test_intro","","","","","","","","","","","","","","",""
"poldrack-multi-stim-multi-response","45","245914","0.0-9.0-4.0","2092","2","digit-span","true","0","","[-1]","","","stim","","[""<div class = centerbox><div class = digit-span-text>2</div></div>"",""<div class = centerbox><div class = digit-span-text>9</div></div>"",""<div class = centerbox><div class = digit-span-text>7</div></div>"",""<div class = centerbox><div class = digit-span-text>6</div></div>"",""<div class = centerbox><div class = digit-span-text>3</div></div>"",""<div class = centerbox><div class = digit-span-text>1</div></div>"",""<div class = centerbox><div class = digit-span-text>5</div></div>"",""<div class = centerbox><div class = digit-span-text>4</div></div>""]","[-1]","none","[1000,1000,1000,1000,1000,1000,1000,1000]","9600","0","test","2,9,7,6,3,1,5,4","8","","","","",""
"single-stim-button","46","254366","0.0-9.0-5.0","2092","2","digit-span","true","0","","8450","","","response","","","","","","8450","1000","test","2,9,7,6,3,1,5,4","8","SubmitButton","8450","2,9,7,6,3,1,2,4","forward","false"
"html-keyboard-response","47","259975","0.0-11.0","2092","2","digit-span","true","0","","5608.399999976158","<div class = centerbox><p class = block-text>Now, you will see some numbers, but this time you will enter them <strong>backward</strong>.<br><br>For example, you see <strong>“1—5”</strong>, and you will enter <strong>“5—1”</strong>.<br><br><br>Press <strong>""Enter/Return""</strong> to begin.</p></div>","13","start_reverse","","","","","","","","","","","","","","",""
"html-keyboard-response","48","260977","0.0-12.0-0.0","2092","2","digit-span","true","0","","null","<div class = centerbox><div class = center-text>2 Digits</p></div>","null","test_intro","","","","","","","","","","","","","","",""
"poldrack-multi-stim-multi-response","49","264381","0.0-12.0-1.0","2092","2","digit-span","true","0","","[-1]","","","stim","","[""<div class = centerbox><div class = digit-span-text>8</div></div>"",""<div class = centerbox><div class = digit-span-text>2</div></div>""]","[-1]","none","[1000,1000]","2400","0","test","8,2","2","","","","",""
"single-stim-button","50","266726","0.0-12.0-2.0","2092","2","digit-span","true","0","","2345","","","response","","","","","","2345","1000","test","8,2","2","SubmitButton","2345","2,8","practice","true"
"html-keyboard-response","51","276728","0.0-12.0-3.0","2092","2","digit-span","true","0","","null","<div class = centerbox><div class = center-block-text><span style=""color:green"">Correct!</span></div></div>","null","feedback","","","","","","","","","","","","","","",""
"html-keyboard-response","52","277731","0.0-12.0-4.0","2092","2","digit-span","true","0","","null","<div class = centerbox><div class = center-text>2 Digits</p></div>","null","test_intro","","","","","","","","","","","","","","",""
"poldrack-multi-stim-multi-response","53","281134","0.0-12.0-5.0","2092","2","digit-span","true","0","","[-1]","","","stim","","[""<div class = centerbox><div class = digit-span-text>5</div></div>"",""<div class = centerbox><div class = digit-span-text>6</div></div>""]","[-1]","none","[1000,1000]","2400","0","test","5,6","2","","","","",""
"single-stim-button","54","283826","0.0-12.0-6.0","2092","2","digit-span","true","0","","2691","","","response","","","","","","2691","1000","test","5,6","2","SubmitButton","2691","6,5","practice","true"
"html-keyboard-response","55","284829","0.0-13.0-0.0","2092","2","digit-span","true","0","","null","<div class = centerbox><div class = center-text>2 Digits</p></div>","null","test_intro","","","","","","","","","","","","","","",""
"poldrack-multi-stim-multi-response","56","288232","0.0-13.0-1.0","2092","2","digit-span","true","0","","[-1]","","","stim","","[""<div class = centerbox><div class = digit-span-text>2</div></div>"",""<div class = centerbox><div class = digit-span-text>5</div></div>""]","[-1]","none","[1000,1000]","2400","0","test","2,5","2","","","","",""
"single-stim-button","57","290566","0.0-13.0-2.0","2092","2","digit-span","true","0","","2333","","","response","","","","","","2333","1000","test","2,5","2","SubmitButton","2333","5,2","reverse","true"
"html-keyboard-response","58","291569","0.0-13.0-3.0","2092","2","digit-span","true","0","","null","<div class = centerbox><div class = center-text>2 Digits</p></div>","null","test_intro","","","","","","","","","","","","","","",""
"poldrack-multi-stim-multi-response","59","294972","0.0-13.0-4.0","2092","2","digit-span","true","0","","[-1]","","","stim","","[""<div class = centerbox><div class = digit-span-text>6</div></div>"",""<div class = centerbox><div class = digit-span-text>3</div></div>""]","[-1]","none","[1000,1000]","2400","0","test","6,3","2","","","","",""
"single-stim-button","60","300973","0.0-13.0-5.0","2092","2","digit-span","true","0","","6000","","","response","","","","","","6000","1000","test","6,3","2","SubmitButton","6000","3,6","reverse","true"
"html-keyboard-response","61","301974","0.0-14.0-0.0","2092","2","digit-span","true","0","","null","<div class = centerbox><div class = center-text>3 Digits</p></div>","null","test_intro","","","","","","","","","","","","","","",""
"poldrack-multi-stim-multi-response","62","306578","0.0-14.0-1.0","2092","2","digit-span","true","0","","[-1]","","","stim","","[""<div class = centerbox><div class = digit-span-text>5</div></div>"",""<div class = centerbox><div class = digit-span-text>7</div></div>"",""<div class = centerbox><div class = digit-span-text>4</div></div>""]","[-1]","none","[1000,1000,1000]","3600","0","test","5,7,4","3","","","","",""
"single-stim-button","63","316028","0.0-14.0-2.0","2092","2","digit-span","true","0","","9449","","","response","","","","","","9449","1000","test","5,7,4","3","SubmitButton","9449","4,7,5","reverse","true"
"html-keyboard-response","64","317030","0.0-14.0-3.0","2092","2","digit-span","true","0","","null","<div class = centerbox><div class = center-text>3 Digits</p></div>","null","test_intro","","","","","","","","","","","","","","",""
"poldrack-multi-stim-multi-response","65","321632","0.0-14.0-4.0","2092","2","digit-span","true","0","","[-1]","","","stim","","[""<div class = centerbox><div class = digit-span-text>2</div></div>"",""<div class = centerbox><div class = digit-span-text>5</div></div>"",""<div class = centerbox><div class = digit-span-text>9</div></div>""]","[-1]","none","[1000,1000,1000]","3600","0","test","2,5,9","3","","","","",""
"single-stim-button","66","324593","0.0-14.0-5.0","2092","2","digit-span","true","0","","2960","","","response","","","","","","2960","1000","test","2,5,9","3","SubmitButton","2960","9,5,2","reverse","true"
"html-keyboard-response","67","325594","0.0-15.0-0.0","2092","2","digit-span","true","0","","null","<div class = centerbox><div class = center-text>4 Digits</p></div>","null","test_intro","","","","","","","","","","","","","","",""
"poldrack-multi-stim-multi-response","68","331397","0.0-15.0-1.0","2092","2","digit-span","true","0","","[-1]","","","stim","","[""<div class = centerbox><div class = digit-span-text>7</div></div>"",""<div class = centerbox><div class = digit-span-text>2</div></div>"",""<div class = centerbox><div class = digit-span-text>9</div></div>"",""<div class = centerbox><div class = digit-span-text>6</div></div>""]","[-1]","none","[1000,1000,1000,1000]","4800","0","test","7,2,9,6","4","","","","",""
"single-stim-button","69","337214","0.0-15.0-2.0","2092","2","digit-span","true","0","","5817","","","response","","","","","","5817","1000","test","7,2,9,6","4","SubmitButton","5817","6,9,2,7","reverse","true"
"html-keyboard-response","70","338215","0.0-15.0-3.0","2092","2","digit-span","true","0","","null","<div class = centerbox><div class = center-text>4 Digits</p></div>","null","test_intro","","","","","","","","","","","","","","",""
"poldrack-multi-stim-multi-response","71","344020","0.0-15.0-4.0","2092","2","digit-span","true","0","","[-1]","","","stim","","[""<div class = centerbox><div class = digit-span-text>8</div></div>"",""<div class = centerbox><div class = digit-span-text>4</div></div>"",""<div class = centerbox><div class = digit-span-text>9</div></div>"",""<div class = centerbox><div class = digit-span-text>3</div></div>""]","[-1]","none","[1000,1000,1000,1000]","4800","0","test","8,4,9,3","4","","","","",""
"single-stim-button","72","348832","0.0-15.0-5.0","2092","2","digit-span","true","0","","4811","","","response","","","","","","4811","1000","test","8,4,9,3","4","SubmitButton","4811","3,9,4,8","reverse","true"
"html-keyboard-response","73","349835","0.0-16.0-0.0","2092","2","digit-span","true","0","","null","<div class = centerbox><div class = center-text>5 Digits</p></div>","null","test_intro","","","","","","","","","","","","","","",""
"poldrack-multi-stim-multi-response","74","356837","0.0-16.0-1.0","2092","2","digit-span","true","0","","[-1]","","","stim","","[""<div class = centerbox><div class = digit-span-text>4</div></div>"",""<div class = centerbox><div class = digit-span-text>1</div></div>"",""<div class = centerbox><div class = digit-span-text>3</div></div>"",""<div class = centerbox><div class = digit-span-text>5</div></div>"",""<div class = centerbox><div class = digit-span-text>7</div></div>""]","[-1]","none","[1000,1000,1000,1000,1000]","6000","0","test","4,1,3,5,7","5","","","","",""
"single-stim-button","75","363117","0.0-16.0-2.0","2092","2","digit-span","true","0","","6274","","","response","","","","","","6274","1000","test","4,1,3,5,7","5","SubmitButton","6274","7,5,3,1,4","reverse","true"
"html-keyboard-response","76","364123","0.0-16.0-3.0","2092","2","digit-span","true","0","","null","<div class = centerbox><div class = center-text>5 Digits</p></div>","null","test_intro","","","","","","","","","","","","","","",""
"poldrack-multi-stim-multi-response","77","371127","0.0-16.0-4.0","2092","2","digit-span","true","0","","[-1]","","","stim","","[""<div class = centerbox><div class = digit-span-text>9</div></div>"",""<div class = centerbox><div class = digit-span-text>7</div></div>"",""<div class = centerbox><div class = digit-span-text>8</div></div>"",""<div class = centerbox><div class = digit-span-text>5</div></div>"",""<div class = centerbox><div class = digit-span-text>2</div></div>""]","[-1]","none","[1000,1000,1000,1000,1000]","6000","0","test","9,7,8,5,2","5","","","","",""
"single-stim-button","78","382289","0.0-16.0-5.0","2092","2","digit-span","true","0","","11160","","","response","","","","","","11160","1000","test","9,7,8,5,2","5","SubmitButton","11160","2,5,8,9,7","reverse","false"
"html-keyboard-response","79","383290","0.0-17.0-0.0","2092","2","digit-span","true","0","","null","<div class = centerbox><div class = center-text>6 Digits</p></div>","null","test_intro","","","","","","","","","","","","","","",""
"poldrack-multi-stim-multi-response","80","391494","0.0-17.0-1.0","2092","2","digit-span","true","0","","[-1]","","","stim","","[""<div class = centerbox><div class = digit-span-text>1</div></div>"",""<div class = centerbox><div class = digit-span-text>6</div></div>"",""<div class = centerbox><div class = digit-span-text>5</div></div>"",""<div class = centerbox><div class = digit-span-text>2</div></div>"",""<div class = centerbox><div class = digit-span-text>9</div></div>"",""<div class = centerbox><div class = digit-span-text>8</div></div>""]","[-1]","none","[1000,1000,1000,1000,1000,1000]","7200","0","test","1,6,5,2,9,8","6","","","","",""
"single-stim-button","81","399999","0.0-17.0-2.0","2092","2","digit-span","true","0","","8504","","","response","","","","","","8504","1000","test","1,6,5,2,9,8","6","SubmitButton","8504","8,9,2,5,6,1","reverse","true"
"html-keyboard-response","82","401002","0.0-17.0-3.0","2092","2","digit-span","true","0","","null","<div class = centerbox><div class = center-text>6 Digits</p></div>","null","test_intro","","","","","","","","","","","","","","",""
"poldrack-multi-stim-multi-response","83","409204","0.0-17.0-4.0","2092","2","digit-span","true","0","","[-1]","","","stim","","[""<div class = centerbox><div class = digit-span-text>3</div></div>"",""<div class = centerbox><div class = digit-span-text>6</div></div>"",""<div class = centerbox><div class = digit-span-text>7</div></div>"",""<div class = centerbox><div class = digit-span-text>1</div></div>"",""<div class = centerbox><div class = digit-span-text>9</div></div>"",""<div class = centerbox><div class = digit-span-text>4</div></div>""]","[-1]","none","[1000,1000,1000,1000,1000,1000]","7200","0","test","3,6,7,1,9,4","6","","","","",""
"single-stim-button","84","429723","0.0-17.0-5.0","2092","2","digit-span","true","0","","20518","","","response","","","","","","20518","1000","test","3,6,7,1,9,4","6","SubmitButton","20518","4,9,7,1,5,2","reverse","false"
"html-keyboard-response","85","430724","0.0-18.0-0.0","2092","2","digit-span","true","0","","null","<div class = centerbox><div class = center-text>7 Digits</p></div>","null","test_intro","","","","","","","","","","","","","","",""
"poldrack-multi-stim-multi-response","86","440128","0.0-18.0-1.0","2092","2","digit-span","true","0","","[-1]","","","stim","","[""<div class = centerbox><div class = digit-span-text>8</div></div>"",""<div class = centerbox><div class = digit-span-text>5</div></div>"",""<div class = centerbox><div class = digit-span-text>9</div></div>"",""<div class = centerbox><div class = digit-span-text>2</div></div>"",""<div class = centerbox><div class = digit-span-text>3</div></div>"",""<div class = centerbox><div class = digit-span-text>4</div></div>"",""<div class = centerbox><div class = digit-span-text>2</div></div>""]","[-1]","none","[1000,1000,1000,1000,1000,1000,1000]","8400","0","test","8,5,9,2,3,4,2","7","","","","",""
"single-stim-button","87","447081","0.0-18.0-2.0","2092","2","digit-span","true","0","","6953","","","response","","","","","","6953","1000","test","8,5,9,2,3,4,2","7","SubmitButton","6953","2,4,5,2,8,9","reverse","false"
"html-keyboard-response","88","448083","0.0-18.0-3.0","2092","2","digit-span","true","0","","null","<div class = centerbox><div class = center-text>7 Digits</p></div>","null","test_intro","","","","","","","","","","","","","","",""
"poldrack-multi-stim-multi-response","89","457486","0.0-18.0-4.0","2092","2","digit-span","true","0","","[-1]","","","stim","","[""<div class = centerbox><div class = digit-span-text>4</div></div>"",""<div class = centerbox><div class = digit-span-text>5</div></div>"",""<div class = centerbox><div class = digit-span-text>7</div></div>"",""<div class = centerbox><div class = digit-span-text>9</div></div>"",""<div class = centerbox><div class = digit-span-text>2</div></div>"",""<div class = centerbox><div class = digit-span-text>8</div></div>"",""<div class = centerbox><div class = digit-span-text>1</div></div>""]","[-1]","none","[1000,1000,1000,1000,1000,1000,1000]","8400","0","test","4,5,7,9,2,8,1","7","","","","",""
"single-stim-button","90","463309","0.0-18.0-5.0","2092","2","digit-span","true","0","","5822","","","response","","","","","","5822","1000","test","4,5,7,9,2,8,1","7","SubmitButton","5822","1,8,2,9,7,4,5","reverse","false"
"image-keyboard-response","91","466864","0.0-20.0","2092","2","digit-span","true","0","","3554","img/trophy2.jpeg","13","end","","","","","","","","","","","","","","",""
