"trial_type","trial_index","time_elapsed","internal_node_id","subject","order","exp_id","full_screen","focus_shifts","success","rt","stimulus","key_press","trial_id","view_history","stimuli","key_presses","possible_responses","stim_durations","block_duration","timing_post_trial","exp_stage","sequence","num_digits","mouse_click","stim_duration","response","condition","correct"
"pavlovia","0","4123","0.0-0.0","2137","1","digit-span","true","0","","","","","","","","","","","","","","","","","","","",""
"fullscreen","1","7708","0.0-1.0","2137","1","digit-span","true","0","true","","","","","","","","","","","","","","","","","","",""
"html-keyboard-response","2","9849","0.0-2.0-0.0","2137","1","digit-span","true","0","","2136.5","<div class = centerbox><p class = center-block-text>Welcome to the number game! It will take less than 5 minutes. Press <strong>""Enter/Return""</strong> to begin.</p></div>","13","instruction","","","","","","","","","","","","","","",""
"instructions","3","19523","0.0-2.0-1.0","2137","1","digit-span","true","0","","9673","","","instruction","[{""page_index"":0,""viewing_time"":9672.399999976158}]","","","","","","","","","","","","","",""
"instructions","4","23553","0.0-2.0-2.0","2137","1","digit-span","true","0","","3025.899999976158","","","instruction","[{""page_index"":0,""viewing_time"":3025.399999976158}]","","","","","","","","","","","","","",""
"html-keyboard-response","5","25567","0.0-3.0-0.0","2137","1","digit-span","true","0","","null","<div class = centerbox><div class = center-text>2 Digits</p></div>","null","test_intro","","","","","","","","","","","","","","",""
"poldrack-multi-stim-multi-response","6","28984","0.0-3.0-1.0","2137","1","digit-span","true","0","","[-1]","","","stim","","[""<div class = centerbox><div class = digit-span-text>2</div></div>"",""<div class = centerbox><div class = digit-span-text>9</div></div>""]","[-1]","none","[1000,1000]","2400","0","test","2,9","2","","","","",""
"single-stim-button","7","36124","0.0-3.0-2.0","2137","1","digit-span","true","0","","7138","","","response","","","","","","7138","1000","test","2,9","2","SubmitButton","7138","2,9","forward","true"
"html-keyboard-response","8","37135","0.0-3.0-3.0","2137","1","digit-span","true","0","","null","<div class = centerbox><div class = center-text>2 Digits</p></div>","null","test_intro","","","","","","","","","","","","","","",""
"poldrack-multi-stim-multi-response","9","40548","0.0-3.0-4.0","2137","1","digit-span","true","0","","[-1]","","","stim","","[""<div class = centerbox><div class = digit-span-text>4</div></div>"",""<div class = centerbox><div class = digit-span-text>6</div></div>""]","[-1]","none","[1000,1000]","2400","0","test","4,6","2","","","","",""
"single-stim-button","10","44046","0.0-3.0-5.0","2137","1","digit-span","true","0","","3496","","","response","","","","","","3496","1000","test","4,6","2","SubmitButton","3496","4,6","forward","true"
"html-keyboard-response","11","45056","0.0-4.0-0.0","2137","1","digit-span","true","0","","null","<div class = centerbox><div class = center-text>3 Digits</p></div>","null","test_intro","","","","","","","","","","","","","","",""
"poldrack-multi-stim-multi-response","12","49672","0.0-4.0-1.0","2137","1","digit-span","true","0","","[-1]","","","stim","","[""<div class = centerbox><div class = digit-span-text>3</div></div>"",""<div class = centerbox><div class = digit-span-text>8</div></div>"",""<div class = centerbox><div class = digit-span-text>6</div></div>""]","[-1]","none","[1000,1000,1000]","3600","0","test","3,8,6","3","","","","",""
"single-stim-button","13","54939","0.0-4.0-2.0","2137","1","digit-span","true","0","","5265","","","response","","","","","","5265","1000","test","3,8,6","3","SubmitButton","5265","3,8,6","forward","true"
"html-keyboard-response","14","55949","0.0-4.0-3.0","2137","1","digit-span","true","0","","null","<div class = centerbox><div class = center-text>3 Digits</p></div>","null","test_intro","","","","","","","","","","","","","","",""
"poldrack-multi-stim-multi-response","15","60568","0.0-4.0-4.0","2137","1","digit-span","true","0","","[-1]","","","stim","","[""<div class = centerbox><div class = digit-span-text>6</div></div>"",""<div class = centerbox><div class = digit-span-text>1</div></div>"",""<div class = centerbox><div class = digit-span-text>2</div></div>""]","[-1]","none","[1000,1000,1000]","3600","0","test","6,1,2","3","","","","",""
"single-stim-button","16","64883","0.0-4.0-5.0","2137","1","digit-span","true","0","","4313","","","response","","","","","","4313","1000","test","6,1,2","3","SubmitButton","4313","6,1,2","forward","true"
"html-keyboard-response","17","65894","0.0-5.0-0.0","2137","1","digit-span","true","0","","null","<div class = centerbox><div class = center-text>4 Digits</p></div>","null","test_intro","","","","","","","","","","","","","","",""
"poldrack-multi-stim-multi-response","18","71710","0.0-5.0-1.0","2137","1","digit-span","true","0","","[-1]","","","stim","","[""<div class = centerbox><div class = digit-span-text>3</div></div>"",""<div class = centerbox><div class = digit-span-text>4</div></div>"",""<div class = centerbox><div class = digit-span-text>1</div></div>"",""<div class = centerbox><div class = digit-span-text>7</div></div>""]","[-1]","none","[1000,1000,1000,1000]","4800","0","test","3,4,1,7","4","","","","",""
"single-stim-button","19","77438","0.0-5.0-2.0","2137","1","digit-span","true","0","","5727","","","response","","","","","","5727","1000","test","3,4,1,7","4","SubmitButton","5727","6,4,1,7","forward","false"
"html-keyboard-response","20","78448","0.0-5.0-3.0","2137","1","digit-span","true","0","","null","<div class = centerbox><div class = center-text>4 Digits</p></div>","null","test_intro","","","","","","","","","","","","","","",""
"poldrack-multi-stim-multi-response","21","84262","0.0-5.0-4.0","2137","1","digit-span","true","0","","[-1]","","","stim","","[""<div class = centerbox><div class = digit-span-text>6</div></div>"",""<div class = centerbox><div class = digit-span-text>1</div></div>"",""<div class = centerbox><div class = digit-span-text>5</div></div>"",""<div class = centerbox><div class = digit-span-text>8</div></div>""]","[-1]","none","[1000,1000,1000,1000]","4800","0","test","6,1,5,8","4","","","","",""
"single-stim-button","22","90040","0.0-5.0-5.0","2137","1","digit-span","true","0","","5776","","","response","","","","","","5776","1000","test","6,1,5,8","4","SubmitButton","5776","6,1,5,8","forward","true"
"html-keyboard-response","23","91047","0.0-6.0-0.0","2137","1","digit-span","true","0","","null","<div class = centerbox><div class = center-text>5 Digits</p></div>","null","test_intro","","","","","","","","","","","","","","",""
"poldrack-multi-stim-multi-response","24","98061","0.0-6.0-1.0","2137","1","digit-span","true","0","","[-1]","","","stim","","[""<div class = centerbox><div class = digit-span-text>8</div></div>"",""<div class = centerbox><div class = digit-span-text>4</div></div>"",""<div class = centerbox><div class = digit-span-text>2</div></div>"",""<div class = centerbox><div class = digit-span-text>3</div></div>"",""<div class = centerbox><div class = digit-span-text>9</div></div>""]","[-1]","none","[1000,1000,1000,1000,1000]","6000","0","test","8,4,2,3,9","5","","","","",""
"single-stim-button","25","107153","0.0-6.0-2.0","2137","1","digit-span","true","0","","9090","","","response","","","","","","9090","1000","test","8,4,2,3,9","5","SubmitButton","9090","8,4,2,3,9","forward","true"
"html-keyboard-response","26","108159","0.0-6.0-3.0","2137","1","digit-span","true","0","","null","<div class = centerbox><div class = center-text>5 Digits</p></div>","null","test_intro","","","","","","","","","","","","","","",""
"poldrack-multi-stim-multi-response","27","115168","0.0-6.0-4.0","2137","1","digit-span","true","0","","[-1]","","","stim","","[""<div class = centerbox><div class = digit-span-text>5</div></div>"",""<div class = centerbox><div class = digit-span-text>2</div></div>"",""<div class = centerbox><div class = digit-span-text>1</div></div>"",""<div class = centerbox><div class = digit-span-text>8</div></div>"",""<div class = centerbox><div class = digit-span-text>6</div></div>""]","[-1]","none","[1000,1000,1000,1000,1000]","6000","0","test","5,2,1,8,6","5","","","","",""
"single-stim-button","28","129943","0.0-6.0-5.0","2137","1","digit-span","true","0","","14773","","","response","","","","","","14773","1000","test","5,2,1,8,6","5","SubmitButton","14773","5,2,1,8,6","forward","true"
"html-keyboard-response","29","130945","0.0-7.0-0.0","2137","1","digit-span","true","0","","null","<div class = centerbox><div class = center-text>6 Digits</p></div>","null","test_intro","","","","","","","","","","","","","","",""
"poldrack-multi-stim-multi-response","30","139161","0.0-7.0-1.0","2137","1","digit-span","true","0","","[-1]","","","stim","","[""<div class = centerbox><div class = digit-span-text>3</div></div>"",""<div class = centerbox><div class = digit-span-text>8</div></div>"",""<div class = centerbox><div class = digit-span-text>9</div></div>"",""<div class = centerbox><div class = digit-span-text>1</div></div>"",""<div class = centerbox><div class = digit-span-text>7</div></div>"",""<div class = centerbox><div class = digit-span-text>4</div></div>""]","[-1]","none","[1000,1000,1000,1000,1000,1000]","7200","0","test","3,8,9,1,7,4","6","","","","",""
"single-stim-button","31","143967","0.0-7.0-2.0","2137","1","digit-span","true","0","","4804","","","response","","","","","","4804","1000","test","3,8,9,1,7,4","6","SubmitButton","4804","4,5,8,6","forward","false"
"html-keyboard-response","32","144973","0.0-7.0-3.0","2137","1","digit-span","true","0","","null","<div class = centerbox><div class = center-text>6 Digits</p></div>","null","test_intro","","","","","","","","","","","","","","",""
"poldrack-multi-stim-multi-response","33","153189","0.0-7.0-4.0","2137","1","digit-span","true","0","","[-1]","","","stim","","[""<div class = centerbox><div class = digit-span-text>7</div></div>"",""<div class = centerbox><div class = digit-span-text>9</div></div>"",""<div class = centerbox><div class = digit-span-text>6</div></div>"",""<div class = centerbox><div class = digit-span-text>4</div></div>"",""<div class = centerbox><div class = digit-span-text>8</div></div>"",""<div class = centerbox><div class = digit-span-text>3</div></div>""]","[-1]","none","[1000,1000,1000,1000,1000,1000]","7200","0","test","7,9,6,4,8,3","6","","","","",""
"single-stim-button","34","170944","0.0-7.0-5.0","2137","1","digit-span","true","0","","17754","","","response","","","","","","17754","1000","test","7,9,6,4,8,3","6","SubmitButton","17754","4,5,6,7,8,9","forward","false"
