"trial_type","trial_index","time_elapsed","internal_node_id","subject","exp_id","full_screen","focus_shifts","success","rt","stimulus","key_press","trial_id","view_history","stimuli","key_presses","possible_responses","stim_durations","block_duration","timing_post_trial","exp_stage","sequence","num_digits","mouse_click","stim_duration","response","condition","correct"
"pavlovia","0","2142","0.0-0.0","1036","digit-span","true","0","","","","","","","","","","","","","","","","","","","",""
"fullscreen","1","4901","0.0-1.0","1036","digit-span","true","0","true","","","","","","","","","","","","","","","","","","",""
"html-keyboard-response","2","8898","0.0-2.0-0.0","1036","digit-span","true","0","","3994.100000143051","<div class = centerbox><p class = center-block-text>Welcome to the number game! It will take less than 5 minutes. Press <strong>""Enter/Return""</strong> to begin.</p></div>","13","instruction","","","","","","","","","","","","","","",""
"instructions","3","16359","0.0-2.0-1.0","1036","digit-span","true","0","","7461.200000047684","","","instruction","[{""page_index"":0,""viewing_time"":7461}]","","","","","","","","","","","","","",""
"instructions","4","24032","0.0-2.0-2.0","1036","digit-span","true","0","","6662.299999952316","","","instruction","[{""page_index"":0,""viewing_time"":6662.199999809265}]","","","","","","","","","","","","","",""
"html-keyboard-response","5","26051","0.0-3.0-0.0","1036","digit-span","true","0","","null","<div class = centerbox><div class = center-text>2 Digits</p></div>","null","test_intro","","","","","","","","","","","","","","",""
"poldrack-multi-stim-multi-response","6","29466","0.0-3.0-1.0","1036","digit-span","true","0","","[-1]","","","stim","","[""<div class = centerbox><div class = digit-span-text>2</div></div>"",""<div class = centerbox><div class = digit-span-text>9</div></div>""]","[-1]","none","[1000,1000]","2400","0","test","2,9","2","","","","",""
"single-stim-button","7","33872","0.0-3.0-2.0","1036","digit-span","true","0","","4405","","","response","","","","","","4405","1000","test","2,9","2","SubmitButton","4405","2,9","forward","true"
"html-keyboard-response","8","34873","0.0-3.0-3.0","1036","digit-span","true","0","","null","<div class = centerbox><div class = center-text>2 Digits</p></div>","null","test_intro","","","","","","","","","","","","","","",""
"poldrack-multi-stim-multi-response","9","38275","0.0-3.0-4.0","1036","digit-span","true","0","","[-1]","","","stim","","[""<div class = centerbox><div class = digit-span-text>4</div></div>"",""<div class = centerbox><div class = digit-span-text>6</div></div>""]","[-1]","none","[1000,1000]","2400","0","test","4,6","2","","","","",""
"single-stim-button","10","40616","0.0-3.0-5.0","1036","digit-span","true","0","","2340","","","response","","","","","","2340","1000","test","4,6","2","SubmitButton","2340","4,6","forward","true"
"html-keyboard-response","11","41617","0.0-4.0-0.0","1036","digit-span","true","0","","null","<div class = centerbox><div class = center-text>3 Digits</p></div>","null","test_intro","","","","","","","","","","","","","","",""
"poldrack-multi-stim-multi-response","12","46222","0.0-4.0-1.0","1036","digit-span","true","0","","[-1]","","","stim","","[""<div class = centerbox><div class = digit-span-text>3</div></div>"",""<div class = centerbox><div class = digit-span-text>8</div></div>"",""<div class = centerbox><div class = digit-span-text>6</div></div>""]","[-1]","none","[1000,1000,1000]","3600","0","test","3,8,6","3","","","","",""
"single-stim-button","13","48808","0.0-4.0-2.0","1036","digit-span","true","0","","2584","","","response","","","","","","2584","1000","test","3,8,6","3","SubmitButton","2584","3,8,6","forward","true"
"html-keyboard-response","14","49810","0.0-4.0-3.0","1036","digit-span","true","0","","null","<div class = centerbox><div class = center-text>3 Digits</p></div>","null","test_intro","","","","","","","","","","","","","","",""
"poldrack-multi-stim-multi-response","15","54412","0.0-4.0-4.0","1036","digit-span","true","0","","[-1]","","","stim","","[""<div class = centerbox><div class = digit-span-text>6</div></div>"",""<div class = centerbox><div class = digit-span-text>1</div></div>"",""<div class = centerbox><div class = digit-span-text>2</div></div>""]","[-1]","none","[1000,1000,1000]","3600","0","test","6,1,2","3","","","","",""
"single-stim-button","16","57248","0.0-4.0-5.0","1036","digit-span","true","0","","2834","","","response","","","","","","2834","1000","test","6,1,2","3","SubmitButton","2834","6,1,2","forward","true"
"html-keyboard-response","17","58249","0.0-5.0-0.0","1036","digit-span","true","0","","null","<div class = centerbox><div class = center-text>4 Digits</p></div>","null","test_intro","","","","","","","","","","","","","","",""
"poldrack-multi-stim-multi-response","18","64053","0.0-5.0-1.0","1036","digit-span","true","0","","[-1]","","","stim","","[""<div class = centerbox><div class = digit-span-text>3</div></div>"",""<div class = centerbox><div class = digit-span-text>4</div></div>"",""<div class = centerbox><div class = digit-span-text>1</div></div>"",""<div class = centerbox><div class = digit-span-text>7</div></div>""]","[-1]","none","[1000,1000,1000,1000]","4800","0","test","3,4,1,7","4","","","","",""
"single-stim-button","19","71096","0.0-5.0-2.0","1036","digit-span","true","0","","7041","","","response","","","","","","7041","1000","test","3,4,1,7","4","SubmitButton","7041","3,4,1,7","forward","true"
"html-keyboard-response","20","72097","0.0-5.0-3.0","1036","digit-span","true","0","","null","<div class = centerbox><div class = center-text>4 Digits</p></div>","null","test_intro","","","","","","","","","","","","","","",""
"poldrack-multi-stim-multi-response","21","77900","0.0-5.0-4.0","1036","digit-span","true","0","","[-1]","","","stim","","[""<div class = centerbox><div class = digit-span-text>6</div></div>"",""<div class = centerbox><div class = digit-span-text>1</div></div>"",""<div class = centerbox><div class = digit-span-text>5</div></div>"",""<div class = centerbox><div class = digit-span-text>8</div></div>""]","[-1]","none","[1000,1000,1000,1000]","4800","0","test","6,1,5,8","4","","","","",""
"single-stim-button","22","80960","0.0-5.0-5.0","1036","digit-span","true","0","","3058","","","response","","","","","","3058","1000","test","6,1,5,8","4","SubmitButton","3058","6,1,5,8","forward","true"
"html-keyboard-response","23","81962","0.0-6.0-0.0","1036","digit-span","true","0","","null","<div class = centerbox><div class = center-text>5 Digits</p></div>","null","test_intro","","","","","","","","","","","","","","",""
"poldrack-multi-stim-multi-response","24","88966","0.0-6.0-1.0","1036","digit-span","true","0","","[-1]","","","stim","","[""<div class = centerbox><div class = digit-span-text>8</div></div>"",""<div class = centerbox><div class = digit-span-text>4</div></div>"",""<div class = centerbox><div class = digit-span-text>2</div></div>"",""<div class = centerbox><div class = digit-span-text>3</div></div>"",""<div class = centerbox><div class = digit-span-text>9</div></div>""]","[-1]","none","[1000,1000,1000,1000,1000]","6000","0","test","8,4,2,3,9","5","","","","",""
"single-stim-button","25","92520","0.0-6.0-2.0","1036","digit-span","true","0","","3553","","","response","","","","","","3553","1000","test","8,4,2,3,9","5","SubmitButton","3553","8,4,2,3,9","forward","true"
"html-keyboard-response","26","93523","0.0-6.0-3.0","1036","digit-span","true","0","","null","<div class = centerbox><div class = center-text>5 Digits</p></div>","null","test_intro","","","","","","","","","","","","","","",""
"poldrack-multi-stim-multi-response","27","100528","0.0-6.0-4.0","1036","digit-span","true","0","","[-1]","","","stim","","[""<div class = centerbox><div class = digit-span-text>5</div></div>"",""<div class = centerbox><div class = digit-span-text>2</div></div>"",""<div class = centerbox><div class = digit-span-text>1</div></div>"",""<div class = centerbox><div class = digit-span-text>8</div></div>"",""<div class = centerbox><div class = digit-span-text>6</div></div>""]","[-1]","none","[1000,1000,1000,1000,1000]","6000","0","test","5,2,1,8,6","5","","","","",""
"single-stim-button","28","103728","0.0-6.0-5.0","1036","digit-span","true","0","","3198","","","response","","","","","","3198","1000","test","5,2,1,8,6","5","SubmitButton","3198","5,2,1,8,6","forward","true"
"html-keyboard-response","29","104728","0.0-7.0-0.0","1036","digit-span","true","0","","null","<div class = centerbox><div class = center-text>6 Digits</p></div>","null","test_intro","","","","","","","","","","","","","","",""
"poldrack-multi-stim-multi-response","30","112933","0.0-7.0-1.0","1036","digit-span","true","0","","[-1]","","","stim","","[""<div class = centerbox><div class = digit-span-text>3</div></div>"",""<div class = centerbox><div class = digit-span-text>8</div></div>"",""<div class = centerbox><div class = digit-span-text>9</div></div>"",""<div class = centerbox><div class = digit-span-text>1</div></div>"",""<div class = centerbox><div class = digit-span-text>7</div></div>"",""<div class = centerbox><div class = digit-span-text>4</div></div>""]","[-1]","none","[1000,1000,1000,1000,1000,1000]","7200","0","test","3,8,9,1,7,4","6","","","","",""
"single-stim-button","31","118232","0.0-7.0-2.0","1036","digit-span","true","0","","5298","","","response","","","","","","5298","1000","test","3,8,9,1,7,4","6","SubmitButton","5298","3,8,9,1,7,4","forward","true"
"html-keyboard-response","32","119234","0.0-7.0-3.0","1036","digit-span","true","0","","null","<div class = centerbox><div class = center-text>6 Digits</p></div>","null","test_intro","","","","","","","","","","","","","","",""
"poldrack-multi-stim-multi-response","33","127439","0.0-7.0-4.0","1036","digit-span","true","0","","[-1]","","","stim","","[""<div class = centerbox><div class = digit-span-text>7</div></div>"",""<div class = centerbox><div class = digit-span-text>9</div></div>"",""<div class = centerbox><div class = digit-span-text>6</div></div>"",""<div class = centerbox><div class = digit-span-text>4</div></div>"",""<div class = centerbox><div class = digit-span-text>8</div></div>"",""<div class = centerbox><div class = digit-span-text>3</div></div>""]","[-1]","none","[1000,1000,1000,1000,1000,1000]","7200","0","test","7,9,6,4,8,3","6","","","","",""
"single-stim-button","34","134712","0.0-7.0-5.0","1036","digit-span","true","0","","7271","","","response","","","","","","7271","1000","test","7,9,6,4,8,3","6","SubmitButton","7271","7,4,9,6,4,3","forward","false"
"html-keyboard-response","35","135715","0.0-8.0-0.0","1036","digit-span","true","0","","null","<div class = centerbox><div class = center-text>7 Digits</p></div>","null","test_intro","","","","","","","","","","","","","","",""
"poldrack-multi-stim-multi-response","36","145118","0.0-8.0-1.0","1036","digit-span","true","0","","[-1]","","","stim","","[""<div class = centerbox><div class = digit-span-text>5</div></div>"",""<div class = centerbox><div class = digit-span-text>1</div></div>"",""<div class = centerbox><div class = digit-span-text>7</div></div>"",""<div class = centerbox><div class = digit-span-text>4</div></div>"",""<div class = centerbox><div class = digit-span-text>2</div></div>"",""<div class = centerbox><div class = digit-span-text>3</div></div>"",""<div class = centerbox><div class = digit-span-text>8</div></div>""]","[-1]","none","[1000,1000,1000,1000,1000,1000,1000]","8400","0","test","5,1,7,4,2,3,8","7","","","","",""
"single-stim-button","37","151352","0.0-8.0-2.0","1036","digit-span","true","0","","6233","","","response","","","","","","6233","1000","test","5,1,7,4,2,3,8","7","SubmitButton","6233","5,1,4,7,2,3,4","forward","false"
"html-keyboard-response","38","152354","0.0-8.0-3.0","1036","digit-span","true","0","","null","<div class = centerbox><div class = center-text>7 Digits</p></div>","null","test_intro","","","","","","","","","","","","","","",""
"poldrack-multi-stim-multi-response","39","161757","0.0-8.0-4.0","1036","digit-span","true","0","","[-1]","","","stim","","[""<div class = centerbox><div class = digit-span-text>9</div></div>"",""<div class = centerbox><div class = digit-span-text>8</div></div>"",""<div class = centerbox><div class = digit-span-text>5</div></div>"",""<div class = centerbox><div class = digit-span-text>2</div></div>"",""<div class = centerbox><div class = digit-span-text>1</div></div>"",""<div class = centerbox><div class = digit-span-text>6</div></div>"",""<div class = centerbox><div class = digit-span-text>3</div></div>""]","[-1]","none","[1000,1000,1000,1000,1000,1000,1000]","8400","0","test","9,8,5,2,1,6,3","7","","","","",""
"single-stim-button","40","168103","0.0-8.0-5.0","1036","digit-span","true","0","","6346","","","response","","","","","","6346","1000","test","9,8,5,2,1,6,3","7","SubmitButton","6346","9,8,5,2,1,6,3","forward","true"
"html-keyboard-response","41","169104","0.0-9.0-0.0","1036","digit-span","true","0","","null","<div class = centerbox><div class = center-text>8 Digits</p></div>","null","test_intro","","","","","","","","","","","","","","",""
"poldrack-multi-stim-multi-response","42","179707","0.0-9.0-1.0","1036","digit-span","true","0","","[-1]","","","stim","","[""<div class = centerbox><div class = digit-span-text>1</div></div>"",""<div class = centerbox><div class = digit-span-text>6</div></div>"",""<div class = centerbox><div class = digit-span-text>4</div></div>"",""<div class = centerbox><div class = digit-span-text>5</div></div>"",""<div class = centerbox><div class = digit-span-text>9</div></div>"",""<div class = centerbox><div class = digit-span-text>7</div></div>"",""<div class = centerbox><div class = digit-span-text>6</div></div>"",""<div class = centerbox><div class = digit-span-text>3</div></div>""]","[-1]","none","[1000,1000,1000,1000,1000,1000,1000,1000]","9600","0","test","1,6,4,5,9,7,6,3","8","","","","",""
"single-stim-button","43","191007","0.0-9.0-2.0","1036","digit-span","true","0","","11298","","","response","","","","","","11298","1000","test","1,6,4,5,9,7,6,3","8","SubmitButton","11298","1,4,9,5,6,7,2,3","forward","false"
"html-keyboard-response","44","192009","0.0-9.0-3.0","1036","digit-span","true","0","","null","<div class = centerbox><div class = center-text>8 Digits</p></div>","null","test_intro","","","","","","","","","","","","","","",""
"poldrack-multi-stim-multi-response","45","202614","0.0-9.0-4.0","1036","digit-span","true","0","","[-1]","","","stim","","[""<div class = centerbox><div class = digit-span-text>2</div></div>"",""<div class = centerbox><div class = digit-span-text>9</div></div>"",""<div class = centerbox><div class = digit-span-text>7</div></div>"",""<div class = centerbox><div class = digit-span-text>6</div></div>"",""<div class = centerbox><div class = digit-span-text>3</div></div>"",""<div class = centerbox><div class = digit-span-text>1</div></div>"",""<div class = centerbox><div class = digit-span-text>5</div></div>"",""<div class = centerbox><div class = digit-span-text>4</div></div>""]","[-1]","none","[1000,1000,1000,1000,1000,1000,1000,1000]","9600","0","test","2,9,7,6,3,1,5,4","8","","","","",""
"single-stim-button","46","213647","0.0-9.0-5.0","1036","digit-span","true","0","","11032","","","response","","","","","","11032","1000","test","2,9,7,6,3,1,5,4","8","SubmitButton","11032","2,9,7,6,5,4,3,6,5","forward","false"
"html-keyboard-response","47","217793","0.0-11.0","1036","digit-span","true","0","","4144.700000047684","<div class = centerbox><p class = block-text>Now, you will see some numbers, but this time you will enter them <strong>backward</strong>.<br><br>For example, you see <strong>“1—5”</strong>, and you will enter <strong>“5—1”</strong>.<br><br><br>Press <strong>""Enter/Return""</strong> to begin.</p></div>","13","start_reverse","","","","","","","","","","","","","","",""
"html-keyboard-response","48","218793","0.0-12.0-0.0","1036","digit-span","true","0","","null","<div class = centerbox><div class = center-text>2 Digits</p></div>","null","test_intro","","","","","","","","","","","","","","",""
"poldrack-multi-stim-multi-response","49","222197","0.0-12.0-1.0","1036","digit-span","true","0","","[-1]","","","stim","","[""<div class = centerbox><div class = digit-span-text>8</div></div>"",""<div class = centerbox><div class = digit-span-text>2</div></div>""]","[-1]","none","[1000,1000]","2400","0","test","8,2","2","","","","",""
"single-stim-button","50","223648","0.0-12.0-2.0","1036","digit-span","true","0","","1448","","","response","","","","","","1448","1000","test","8,2","2","SubmitButton","1448","2,8","practice","true"
"html-keyboard-response","51","233649","0.0-12.0-3.0","1036","digit-span","true","0","","null","<div class = centerbox><div class = center-block-text><span style=""color:green"">Correct!</span></div></div>","null","feedback","","","","","","","","","","","","","","",""
"html-keyboard-response","52","234663","0.0-12.0-4.0","1036","digit-span","true","0","","null","<div class = centerbox><div class = center-text>2 Digits</p></div>","null","test_intro","","","","","","","","","","","","","","",""
"poldrack-multi-stim-multi-response","53","238067","0.0-12.0-5.0","1036","digit-span","true","0","","[-1]","","","stim","","[""<div class = centerbox><div class = digit-span-text>5</div></div>"",""<div class = centerbox><div class = digit-span-text>6</div></div>""]","[-1]","none","[1000,1000]","2400","0","test","5,6","2","","","","",""
"single-stim-button","54","243104","0.0-12.0-6.0","1036","digit-span","true","0","","5035","","","response","","","","","","5035","1000","test","5,6","2","SubmitButton","5035","6,5","practice","true"
"html-keyboard-response","55","244105","0.0-13.0-0.0","1036","digit-span","true","0","","null","<div class = centerbox><div class = center-text>2 Digits</p></div>","null","test_intro","","","","","","","","","","","","","","",""
"poldrack-multi-stim-multi-response","56","247507","0.0-13.0-1.0","1036","digit-span","true","0","","[-1]","","","stim","","[""<div class = centerbox><div class = digit-span-text>2</div></div>"",""<div class = centerbox><div class = digit-span-text>5</div></div>""]","[-1]","none","[1000,1000]","2400","0","test","2,5","2","","","","",""
"single-stim-button","57","249104","0.0-13.0-2.0","1036","digit-span","true","0","","1596","","","response","","","","","","1596","1000","test","2,5","2","SubmitButton","1596","5,2","reverse","true"
"html-keyboard-response","58","250105","0.0-13.0-3.0","1036","digit-span","true","0","","null","<div class = centerbox><div class = center-text>2 Digits</p></div>","null","test_intro","","","","","","","","","","","","","","",""
"poldrack-multi-stim-multi-response","59","253510","0.0-13.0-4.0","1036","digit-span","true","0","","[-1]","","","stim","","[""<div class = centerbox><div class = digit-span-text>6</div></div>"",""<div class = centerbox><div class = digit-span-text>3</div></div>""]","[-1]","none","[1000,1000]","2400","0","test","6,3","2","","","","",""
"single-stim-button","60","255296","0.0-13.0-5.0","1036","digit-span","true","0","","1784","","","response","","","","","","1784","1000","test","6,3","2","SubmitButton","1784","6,3","reverse","false"
"html-keyboard-response","61","256297","0.0-14.0-0.0","1036","digit-span","true","0","","null","<div class = centerbox><div class = center-text>3 Digits</p></div>","null","test_intro","","","","","","","","","","","","","","",""
"poldrack-multi-stim-multi-response","62","260901","0.0-14.0-1.0","1036","digit-span","true","0","","[-1]","","","stim","","[""<div class = centerbox><div class = digit-span-text>5</div></div>"",""<div class = centerbox><div class = digit-span-text>7</div></div>"",""<div class = centerbox><div class = digit-span-text>4</div></div>""]","[-1]","none","[1000,1000,1000]","3600","0","test","5,7,4","3","","","","",""
"single-stim-button","63","263256","0.0-14.0-2.0","1036","digit-span","true","0","","2354","","","response","","","","","","2354","1000","test","5,7,4","3","SubmitButton","2354","4,7,5","reverse","true"
"html-keyboard-response","64","264258","0.0-14.0-3.0","1036","digit-span","true","0","","null","<div class = centerbox><div class = center-text>3 Digits</p></div>","null","test_intro","","","","","","","","","","","","","","",""
"poldrack-multi-stim-multi-response","65","268863","0.0-14.0-4.0","1036","digit-span","true","0","","[-1]","","","stim","","[""<div class = centerbox><div class = digit-span-text>2</div></div>"",""<div class = centerbox><div class = digit-span-text>5</div></div>"",""<div class = centerbox><div class = digit-span-text>9</div></div>""]","[-1]","none","[1000,1000,1000]","3600","0","test","2,5,9","3","","","","",""
"single-stim-button","66","270976","0.0-14.0-5.0","1036","digit-span","true","0","","2110","","","response","","","","","","2110","1000","test","2,5,9","3","SubmitButton","2110","9,5,2","reverse","true"
"html-keyboard-response","67","271977","0.0-15.0-0.0","1036","digit-span","true","0","","null","<div class = centerbox><div class = center-text>4 Digits</p></div>","null","test_intro","","","","","","","","","","","","","","",""
"poldrack-multi-stim-multi-response","68","277780","0.0-15.0-1.0","1036","digit-span","true","0","","[-1]","","","stim","","[""<div class = centerbox><div class = digit-span-text>7</div></div>"",""<div class = centerbox><div class = digit-span-text>2</div></div>"",""<div class = centerbox><div class = digit-span-text>9</div></div>"",""<div class = centerbox><div class = digit-span-text>6</div></div>""]","[-1]","none","[1000,1000,1000,1000]","4800","0","test","7,2,9,6","4","","","","",""
"single-stim-button","69","280415","0.0-15.0-2.0","1036","digit-span","true","0","","2635","","","response","","","","","","2635","1000","test","7,2,9,6","4","SubmitButton","2635","6,9,2,7","reverse","true"
"html-keyboard-response","70","281416","0.0-15.0-3.0","1036","digit-span","true","0","","null","<div class = centerbox><div class = center-text>4 Digits</p></div>","null","test_intro","","","","","","","","","","","","","","",""
"poldrack-multi-stim-multi-response","71","287221","0.0-15.0-4.0","1036","digit-span","true","0","","[-1]","","","stim","","[""<div class = centerbox><div class = digit-span-text>8</div></div>"",""<div class = centerbox><div class = digit-span-text>4</div></div>"",""<div class = centerbox><div class = digit-span-text>9</div></div>"",""<div class = centerbox><div class = digit-span-text>3</div></div>""]","[-1]","none","[1000,1000,1000,1000]","4800","0","test","8,4,9,3","4","","","","",""
"single-stim-button","72","291144","0.0-15.0-5.0","1036","digit-span","true","0","","3921","","","response","","","","","","3921","1000","test","8,4,9,3","4","SubmitButton","3921","3,9,8,4","reverse","false"
"html-keyboard-response","73","292145","0.0-16.0-0.0","1036","digit-span","true","0","","null","<div class = centerbox><div class = center-text>5 Digits</p></div>","null","test_intro","","","","","","","","","","","","","","",""
"poldrack-multi-stim-multi-response","74","299149","0.0-16.0-1.0","1036","digit-span","true","0","","[-1]","","","stim","","[""<div class = centerbox><div class = digit-span-text>4</div></div>"",""<div class = centerbox><div class = digit-span-text>1</div></div>"",""<div class = centerbox><div class = digit-span-text>3</div></div>"",""<div class = centerbox><div class = digit-span-text>5</div></div>"",""<div class = centerbox><div class = digit-span-text>7</div></div>""]","[-1]","none","[1000,1000,1000,1000,1000]","6000","0","test","4,1,3,5,7","5","","","","",""
"single-stim-button","75","313320","0.0-16.0-2.0","1036","digit-span","true","0","","14169","","","response","","","","","","14169","1000","test","4,1,3,5,7","5","SubmitButton","14169","7,5,3,1,4","reverse","true"
"html-keyboard-response","76","314321","0.0-16.0-3.0","1036","digit-span","true","0","","null","<div class = centerbox><div class = center-text>5 Digits</p></div>","null","test_intro","","","","","","","","","","","","","","",""
"poldrack-multi-stim-multi-response","77","321327","0.0-16.0-4.0","1036","digit-span","true","0","","[-1]","","","stim","","[""<div class = centerbox><div class = digit-span-text>9</div></div>"",""<div class = centerbox><div class = digit-span-text>7</div></div>"",""<div class = centerbox><div class = digit-span-text>8</div></div>"",""<div class = centerbox><div class = digit-span-text>5</div></div>"",""<div class = centerbox><div class = digit-span-text>2</div></div>""]","[-1]","none","[1000,1000,1000,1000,1000]","6000","0","test","9,7,8,5,2","5","","","","",""
"single-stim-button","78","331535","0.0-16.0-5.0","1036","digit-span","true","0","","10207","","","response","","","","","","10207","1000","test","9,7,8,5,2","5","SubmitButton","10207","2,5,8,7,9","reverse","true"
"html-keyboard-response","79","332537","0.0-17.0-0.0","1036","digit-span","true","0","","null","<div class = centerbox><div class = center-text>6 Digits</p></div>","null","test_intro","","","","","","","","","","","","","","",""
"poldrack-multi-stim-multi-response","80","340742","0.0-17.0-1.0","1036","digit-span","true","0","","[-1]","","","stim","","[""<div class = centerbox><div class = digit-span-text>1</div></div>"",""<div class = centerbox><div class = digit-span-text>6</div></div>"",""<div class = centerbox><div class = digit-span-text>5</div></div>"",""<div class = centerbox><div class = digit-span-text>2</div></div>"",""<div class = centerbox><div class = digit-span-text>9</div></div>"",""<div class = centerbox><div class = digit-span-text>8</div></div>""]","[-1]","none","[1000,1000,1000,1000,1000,1000]","7200","0","test","1,6,5,2,9,8","6","","","","",""
"single-stim-button","81","351608","0.0-17.0-2.0","1036","digit-span","true","0","","10863","","","response","","","","","","10863","1000","test","1,6,5,2,9,8","6","SubmitButton","10863","8,9,2,5,6,1","reverse","true"
"html-keyboard-response","82","352611","0.0-17.0-3.0","1036","digit-span","true","0","","null","<div class = centerbox><div class = center-text>6 Digits</p></div>","null","test_intro","","","","","","","","","","","","","","",""
"poldrack-multi-stim-multi-response","83","360815","0.0-17.0-4.0","1036","digit-span","true","0","","[-1]","","","stim","","[""<div class = centerbox><div class = digit-span-text>3</div></div>"",""<div class = centerbox><div class = digit-span-text>6</div></div>"",""<div class = centerbox><div class = digit-span-text>7</div></div>"",""<div class = centerbox><div class = digit-span-text>1</div></div>"",""<div class = centerbox><div class = digit-span-text>9</div></div>"",""<div class = centerbox><div class = digit-span-text>4</div></div>""]","[-1]","none","[1000,1000,1000,1000,1000,1000]","7200","0","test","3,6,7,1,9,4","6","","","","",""
"single-stim-button","84","383328","0.0-17.0-5.0","1036","digit-span","true","0","","22513","","","response","","","","","","22513","1000","test","3,6,7,1,9,4","6","SubmitButton","22513","9,3,1,6,7,3","reverse","false"
"html-keyboard-response","85","384335","0.0-18.0-0.0","1036","digit-span","true","0","","null","<div class = centerbox><div class = center-text>7 Digits</p></div>","null","test_intro","","","","","","","","","","","","","","",""
"poldrack-multi-stim-multi-response","86","393739","0.0-18.0-1.0","1036","digit-span","true","0","","[-1]","","","stim","","[""<div class = centerbox><div class = digit-span-text>8</div></div>"",""<div class = centerbox><div class = digit-span-text>5</div></div>"",""<div class = centerbox><div class = digit-span-text>9</div></div>"",""<div class = centerbox><div class = digit-span-text>2</div></div>"",""<div class = centerbox><div class = digit-span-text>3</div></div>"",""<div class = centerbox><div class = digit-span-text>4</div></div>"",""<div class = centerbox><div class = digit-span-text>2</div></div>""]","[-1]","none","[1000,1000,1000,1000,1000,1000,1000]","8400","0","test","8,5,9,2,3,4,2","7","","","","",""
"single-stim-button","87","421607","0.0-18.0-2.0","1036","digit-span","true","0","","27868","","","response","","","","","","27868","1000","test","8,5,9,2,3,4,2","7","SubmitButton","27868","2,4,3,2,9,5,8","reverse","true"
"html-keyboard-response","88","422609","0.0-18.0-3.0","1036","digit-span","true","0","","null","<div class = centerbox><div class = center-text>7 Digits</p></div>","null","test_intro","","","","","","","","","","","","","","",""
"poldrack-multi-stim-multi-response","89","432014","0.0-18.0-4.0","1036","digit-span","true","0","","[-1]","","","stim","","[""<div class = centerbox><div class = digit-span-text>4</div></div>"",""<div class = centerbox><div class = digit-span-text>5</div></div>"",""<div class = centerbox><div class = digit-span-text>7</div></div>"",""<div class = centerbox><div class = digit-span-text>9</div></div>"",""<div class = centerbox><div class = digit-span-text>2</div></div>"",""<div class = centerbox><div class = digit-span-text>8</div></div>"",""<div class = centerbox><div class = digit-span-text>1</div></div>""]","[-1]","none","[1000,1000,1000,1000,1000,1000,1000]","8400","0","test","4,5,7,9,2,8,1","7","","","","",""
"single-stim-button","90","445975","0.0-18.0-5.0","1036","digit-span","true","0","","13960","","","response","","","","","","13960","1000","test","4,5,7,9,2,8,1","7","SubmitButton","13960","2,9,1,8,7,5,4","reverse","false"
"html-keyboard-response","91","446976","0.0-19.0-0.0","1036","digit-span","true","0","","null","<div class = centerbox><div class = center-text>8 Digits</p></div>","null","test_intro","","","","","","","","","","","","","","",""
"poldrack-multi-stim-multi-response","92","457580","0.0-19.0-1.0","1036","digit-span","true","0","","[-1]","","","stim","","[""<div class = centerbox><div class = digit-span-text>6</div></div>"",""<div class = centerbox><div class = digit-span-text>9</div></div>"",""<div class = centerbox><div class = digit-span-text>1</div></div>"",""<div class = centerbox><div class = digit-span-text>6</div></div>"",""<div class = centerbox><div class = digit-span-text>3</div></div>"",""<div class = centerbox><div class = digit-span-text>2</div></div>"",""<div class = centerbox><div class = digit-span-text>5</div></div>"",""<div class = centerbox><div class = digit-span-text>8</div></div>""]","[-1]","none","[1000,1000,1000,1000,1000,1000,1000,1000]","9600","0","test","6,9,1,6,3,2,5,8","8","","","","",""
"single-stim-button","93","476360","0.0-19.0-2.0","1036","digit-span","true","0","","18779","","","response","","","","","","18779","1000","test","6,9,1,6,3,2,5,8","8","SubmitButton","18779","5,8,9,2,6,1,9,6","reverse","false"
"html-keyboard-response","94","477361","0.0-19.0-3.0","1036","digit-span","true","0","","null","<div class = centerbox><div class = center-text>8 Digits</p></div>","null","test_intro","","","","","","","","","","","","","","",""
"poldrack-multi-stim-multi-response","95","487965","0.0-19.0-4.0","1036","digit-span","true","0","","[-1]","","","stim","","[""<div class = centerbox><div class = digit-span-text>3</div></div>"",""<div class = centerbox><div class = digit-span-text>1</div></div>"",""<div class = centerbox><div class = digit-span-text>7</div></div>"",""<div class = centerbox><div class = digit-span-text>9</div></div>"",""<div class = centerbox><div class = digit-span-text>5</div></div>"",""<div class = centerbox><div class = digit-span-text>4</div></div>"",""<div class = centerbox><div class = digit-span-text>8</div></div>"",""<div class = centerbox><div class = digit-span-text>2</div></div>""]","[-1]","none","[1000,1000,1000,1000,1000,1000,1000,1000]","9600","0","test","3,1,7,9,5,4,8,2","8","","","","",""
"single-stim-button","96","512649","0.0-19.0-5.0","1036","digit-span","true","0","","24683","","","response","","","","","","24683","1000","test","3,1,7,9,5,4,8,2","8","SubmitButton","24683","5,3,2,5,7,5,5,6","reverse","false"
"image-keyboard-response","97","515241","0.0-20.0","1036","digit-span","true","0","","2591.5999999046326","img/trophy2.jpeg","13","end","","","","","","","","","","","","","","",""
