"trial_type","trial_index","time_elapsed","internal_node_id","subject","order","exp_id","full_screen","focus_shifts","success","rt","stimulus","key_press","trial_id","view_history","stimuli","key_presses","possible_responses","stim_durations","block_duration","timing_post_trial","exp_stage","sequence","num_digits","mouse_click","stim_duration","response","condition","correct"
"pavlovia","0","2676","0.0-0.0","2028","2","digit-span","true","0","","","","","","","","","","","","","","","","","","","",""
"fullscreen","1","5361","0.0-1.0","2028","2","digit-span","true","0","true","","","","","","","","","","","","","","","","","","",""
"html-keyboard-response","2","9012","0.0-2.0-0.0","2028","2","digit-span","true","0","","3649.100000000093","<div class = centerbox><p class = center-block-text>Welcome to the number game! It will take less than 5 minutes. Press <strong>""Enter/Return""</strong> to begin.</p></div>","13","instruction","","","","","","","","","","","","","","",""
"instructions","3","11157","0.0-2.0-1.0","2028","2","digit-span","true","0","","2144.2999999998137","","","instruction","[{""page_index"":0,""viewing_time"":2143.7999999998137}]","","","","","","","","","","","","","",""
"instructions","4","13076","0.0-2.0-2.0","2028","2","digit-span","true","0","","917","","","instruction","[{""page_index"":0,""viewing_time"":916.7000000001863}]","","","","","","","","","","","","","",""
"html-keyboard-response","5","15081","0.0-3.0-0.0","2028","2","digit-span","true","0","","null","<div class = centerbox><div class = center-text>2 Digits</p></div>","null","test_intro","","","","","","","","","","","","","","",""
"poldrack-multi-stim-multi-response","6","18486","0.0-3.0-1.0","2028","2","digit-span","true","0","","[-1]","","","stim","","[""<div class = centerbox><div class = digit-span-text>2</div></div>"",""<div class = centerbox><div class = digit-span-text>9</div></div>""]","[-1]","none","[1000,1000]","2400","0","test","2,9","2","","","","",""
"single-stim-button","7","21176","0.0-3.0-2.0","2028","2","digit-span","true","0","","2687","","","response","","","","","","2687","1000","test","2,9","2","SubmitButton","2687","2,9","forward","true"
"html-keyboard-response","8","22179","0.0-3.0-3.0","2028","2","digit-span","true","0","","null","<div class = centerbox><div class = center-text>2 Digits</p></div>","null","test_intro","","","","","","","","","","","","","","",""
"poldrack-multi-stim-multi-response","9","25583","0.0-3.0-4.0","2028","2","digit-span","true","0","","[-1]","","","stim","","[""<div class = centerbox><div class = digit-span-text>4</div></div>"",""<div class = centerbox><div class = digit-span-text>6</div></div>""]","[-1]","none","[1000,1000]","2400","0","test","4,6","2","","","","",""
"single-stim-button","10","29399","0.0-3.0-5.0","2028","2","digit-span","true","0","","3814","","","response","","","","","","3814","1000","test","4,6","2","SubmitButton","3814","4,6","forward","true"
"html-keyboard-response","11","30401","0.0-4.0-0.0","2028","2","digit-span","true","0","","null","<div class = centerbox><div class = center-text>3 Digits</p></div>","null","test_intro","","","","","","","","","","","","","","",""
"poldrack-multi-stim-multi-response","12","35003","0.0-4.0-1.0","2028","2","digit-span","true","0","","[-1]","","","stim","","[""<div class = centerbox><div class = digit-span-text>3</div></div>"",""<div class = centerbox><div class = digit-span-text>8</div></div>"",""<div class = centerbox><div class = digit-span-text>6</div></div>""]","[-1]","none","[1000,1000,1000]","3600","0","test","3,8,6","3","","","","",""
"single-stim-button","13","38919","0.0-4.0-2.0","2028","2","digit-span","true","0","","3914","","","response","","","","","","3914","1000","test","3,8,6","3","SubmitButton","3914","3,8,6","forward","true"
"html-keyboard-response","14","39921","0.0-4.0-3.0","2028","2","digit-span","true","0","","null","<div class = centerbox><div class = center-text>3 Digits</p></div>","null","test_intro","","","","","","","","","","","","","","",""
"poldrack-multi-stim-multi-response","15","44524","0.0-4.0-4.0","2028","2","digit-span","true","0","","[-1]","","","stim","","[""<div class = centerbox><div class = digit-span-text>6</div></div>"",""<div class = centerbox><div class = digit-span-text>1</div></div>"",""<div class = centerbox><div class = digit-span-text>2</div></div>""]","[-1]","none","[1000,1000,1000]","3600","0","test","6,1,2","3","","","","",""
"single-stim-button","16","47297","0.0-4.0-5.0","2028","2","digit-span","true","0","","2772","","","response","","","","","","2772","1000","test","6,1,2","3","SubmitButton","2772","6,1,2","forward","true"
"html-keyboard-response","17","48300","0.0-5.0-0.0","2028","2","digit-span","true","0","","null","<div class = centerbox><div class = center-text>4 Digits</p></div>","null","test_intro","","","","","","","","","","","","","","",""
"poldrack-multi-stim-multi-response","18","54102","0.0-5.0-1.0","2028","2","digit-span","true","0","","[-1]","","","stim","","[""<div class = centerbox><div class = digit-span-text>3</div></div>"",""<div class = centerbox><div class = digit-span-text>4</div></div>"",""<div class = centerbox><div class = digit-span-text>1</div></div>"",""<div class = centerbox><div class = digit-span-text>7</div></div>""]","[-1]","none","[1000,1000,1000,1000]","4800","0","test","3,4,1,7","4","","","","",""
"single-stim-button","19","58961","0.0-5.0-2.0","2028","2","digit-span","true","0","","4857","","","response","","","","","","4857","1000","test","3,4,1,7","4","SubmitButton","4857","3,4,1,7","forward","true"
"html-keyboard-response","20","59963","0.0-5.0-3.0","2028","2","digit-span","true","0","","null","<div class = centerbox><div class = center-text>4 Digits</p></div>","null","test_intro","","","","","","","","","","","","","","",""
"poldrack-multi-stim-multi-response","21","65766","0.0-5.0-4.0","2028","2","digit-span","true","0","","[-1]","","","stim","","[""<div class = centerbox><div class = digit-span-text>6</div></div>"",""<div class = centerbox><div class = digit-span-text>1</div></div>"",""<div class = centerbox><div class = digit-span-text>5</div></div>"",""<div class = centerbox><div class = digit-span-text>8</div></div>""]","[-1]","none","[1000,1000,1000,1000]","4800","0","test","6,1,5,8","4","","","","",""
"single-stim-button","22","69383","0.0-5.0-5.0","2028","2","digit-span","true","0","","3614","","","response","","","","","","3614","1000","test","6,1,5,8","4","SubmitButton","3614","6,1,5,8","forward","true"
"html-keyboard-response","23","70386","0.0-6.0-0.0","2028","2","digit-span","true","0","","null","<div class = centerbox><div class = center-text>5 Digits</p></div>","null","test_intro","","","","","","","","","","","","","","",""
"poldrack-multi-stim-multi-response","24","77389","0.0-6.0-1.0","2028","2","digit-span","true","0","","[-1]","","","stim","","[""<div class = centerbox><div class = digit-span-text>8</div></div>"",""<div class = centerbox><div class = digit-span-text>4</div></div>"",""<div class = centerbox><div class = digit-span-text>2</div></div>"",""<div class = centerbox><div class = digit-span-text>3</div></div>"",""<div class = centerbox><div class = digit-span-text>9</div></div>""]","[-1]","none","[1000,1000,1000,1000,1000]","6000","0","test","8,4,2,3,9","5","","","","",""
"single-stim-button","25","82040","0.0-6.0-2.0","2028","2","digit-span","true","0","","4649","","","response","","","","","","4649","1000","test","8,4,2,3,9","5","SubmitButton","4649","8,4,2,3,9","forward","true"
"html-keyboard-response","26","83042","0.0-6.0-3.0","2028","2","digit-span","true","0","","null","<div class = centerbox><div class = center-text>5 Digits</p></div>","null","test_intro","","","","","","","","","","","","","","",""
"poldrack-multi-stim-multi-response","27","90046","0.0-6.0-4.0","2028","2","digit-span","true","0","","[-1]","","","stim","","[""<div class = centerbox><div class = digit-span-text>5</div></div>"",""<div class = centerbox><div class = digit-span-text>2</div></div>"",""<div class = centerbox><div class = digit-span-text>1</div></div>"",""<div class = centerbox><div class = digit-span-text>8</div></div>"",""<div class = centerbox><div class = digit-span-text>6</div></div>""]","[-1]","none","[1000,1000,1000,1000,1000]","6000","0","test","5,2,1,8,6","5","","","","",""
"single-stim-button","28","95284","0.0-6.0-5.0","2028","2","digit-span","true","0","","5236","","","response","","","","","","5236","1000","test","5,2,1,8,6","5","SubmitButton","5236","5,2,1,8,6","forward","true"
"html-keyboard-response","29","96287","0.0-7.0-0.0","2028","2","digit-span","true","0","","null","<div class = centerbox><div class = center-text>6 Digits</p></div>","null","test_intro","","","","","","","","","","","","","","",""
"poldrack-multi-stim-multi-response","30","104490","0.0-7.0-1.0","2028","2","digit-span","true","0","","[-1]","","","stim","","[""<div class = centerbox><div class = digit-span-text>3</div></div>"",""<div class = centerbox><div class = digit-span-text>8</div></div>"",""<div class = centerbox><div class = digit-span-text>9</div></div>"",""<div class = centerbox><div class = digit-span-text>1</div></div>"",""<div class = centerbox><div class = digit-span-text>7</div></div>"",""<div class = centerbox><div class = digit-span-text>4</div></div>""]","[-1]","none","[1000,1000,1000,1000,1000,1000]","7200","0","test","3,8,9,1,7,4","6","","","","",""
"single-stim-button","31","111503","0.0-7.0-2.0","2028","2","digit-span","true","0","","7011","","","response","","","","","","7011","1000","test","3,8,9,1,7,4","6","SubmitButton","7011","3,8,9,1,7,4","forward","true"
"html-keyboard-response","32","112506","0.0-7.0-3.0","2028","2","digit-span","true","0","","null","<div class = centerbox><div class = center-text>6 Digits</p></div>","null","test_intro","","","","","","","","","","","","","","",""
"poldrack-multi-stim-multi-response","33","120712","0.0-7.0-4.0","2028","2","digit-span","true","0","","[-1]","","","stim","","[""<div class = centerbox><div class = digit-span-text>7</div></div>"",""<div class = centerbox><div class = digit-span-text>9</div></div>"",""<div class = centerbox><div class = digit-span-text>6</div></div>"",""<div class = centerbox><div class = digit-span-text>4</div></div>"",""<div class = centerbox><div class = digit-span-text>8</div></div>"",""<div class = centerbox><div class = digit-span-text>3</div></div>""]","[-1]","none","[1000,1000,1000,1000,1000,1000]","7200","0","test","7,9,6,4,8,3","6","","","","",""
"single-stim-button","34","126602","0.0-7.0-5.0","2028","2","digit-span","true","0","","5887","","","response","","","","","","5887","1000","test","7,9,6,4,8,3","6","SubmitButton","5887","7,9,6,4,8,3","forward","true"
"html-keyboard-response","35","127607","0.0-8.0-0.0","2028","2","digit-span","true","0","","null","<div class = centerbox><div class = center-text>7 Digits</p></div>","null","test_intro","","","","","","","","","","","","","","",""
"poldrack-multi-stim-multi-response","36","137010","0.0-8.0-1.0","2028","2","digit-span","true","0","","[-1]","","","stim","","[""<div class = centerbox><div class = digit-span-text>5</div></div>"",""<div class = centerbox><div class = digit-span-text>1</div></div>"",""<div class = centerbox><div class = digit-span-text>7</div></div>"",""<div class = centerbox><div class = digit-span-text>4</div></div>"",""<div class = centerbox><div class = digit-span-text>2</div></div>"",""<div class = centerbox><div class = digit-span-text>3</div></div>"",""<div class = centerbox><div class = digit-span-text>8</div></div>""]","[-1]","none","[1000,1000,1000,1000,1000,1000,1000]","8400","0","test","5,1,7,4,2,3,8","7","","","","",""
"single-stim-button","37","144249","0.0-8.0-2.0","2028","2","digit-span","true","0","","7237","","","response","","","","","","7237","1000","test","5,1,7,4,2,3,8","7","SubmitButton","7237","5,1,7,4,2,3,8","forward","true"
"html-keyboard-response","38","145252","0.0-8.0-3.0","2028","2","digit-span","true","0","","null","<div class = centerbox><div class = center-text>7 Digits</p></div>","null","test_intro","","","","","","","","","","","","","","",""
"poldrack-multi-stim-multi-response","39","154656","0.0-8.0-4.0","2028","2","digit-span","true","0","","[-1]","","","stim","","[""<div class = centerbox><div class = digit-span-text>9</div></div>"",""<div class = centerbox><div class = digit-span-text>8</div></div>"",""<div class = centerbox><div class = digit-span-text>5</div></div>"",""<div class = centerbox><div class = digit-span-text>2</div></div>"",""<div class = centerbox><div class = digit-span-text>1</div></div>"",""<div class = centerbox><div class = digit-span-text>6</div></div>"",""<div class = centerbox><div class = digit-span-text>3</div></div>""]","[-1]","none","[1000,1000,1000,1000,1000,1000,1000]","8400","0","test","9,8,5,2,1,6,3","7","","","","",""
"single-stim-button","40","162136","0.0-8.0-5.0","2028","2","digit-span","true","0","","7478","","","response","","","","","","7478","1000","test","9,8,5,2,1,6,3","7","SubmitButton","7478","9,8,5,1,2,6,3","forward","false"
"html-keyboard-response","41","163139","0.0-9.0-0.0","2028","2","digit-span","true","0","","null","<div class = centerbox><div class = center-text>8 Digits</p></div>","null","test_intro","","","","","","","","","","","","","","",""
"poldrack-multi-stim-multi-response","42","173742","0.0-9.0-1.0","2028","2","digit-span","true","0","","[-1]","","","stim","","[""<div class = centerbox><div class = digit-span-text>1</div></div>"",""<div class = centerbox><div class = digit-span-text>6</div></div>"",""<div class = centerbox><div class = digit-span-text>4</div></div>"",""<div class = centerbox><div class = digit-span-text>5</div></div>"",""<div class = centerbox><div class = digit-span-text>9</div></div>"",""<div class = centerbox><div class = digit-span-text>7</div></div>"",""<div class = centerbox><div class = digit-span-text>6</div></div>"",""<div class = centerbox><div class = digit-span-text>3</div></div>""]","[-1]","none","[1000,1000,1000,1000,1000,1000,1000,1000]","9600","0","test","1,6,4,5,9,7,6,3","8","","","","",""
"single-stim-button","43","184604","0.0-9.0-2.0","2028","2","digit-span","true","0","","10860","","","response","","","","","","10860","1000","test","1,6,4,5,9,7,6,3","8","SubmitButton","10860","1,6,4,9,5,7,6,3","forward","false"
"html-keyboard-response","44","185606","0.0-9.0-3.0","2028","2","digit-span","true","0","","null","<div class = centerbox><div class = center-text>8 Digits</p></div>","null","test_intro","","","","","","","","","","","","","","",""
"poldrack-multi-stim-multi-response","45","196210","0.0-9.0-4.0","2028","2","digit-span","true","0","","[-1]","","","stim","","[""<div class = centerbox><div class = digit-span-text>2</div></div>"",""<div class = centerbox><div class = digit-span-text>9</div></div>"",""<div class = centerbox><div class = digit-span-text>7</div></div>"",""<div class = centerbox><div class = digit-span-text>6</div></div>"",""<div class = centerbox><div class = digit-span-text>3</div></div>"",""<div class = centerbox><div class = digit-span-text>1</div></div>"",""<div class = centerbox><div class = digit-span-text>5</div></div>"",""<div class = centerbox><div class = digit-span-text>4</div></div>""]","[-1]","none","[1000,1000,1000,1000,1000,1000,1000,1000]","9600","0","test","2,9,7,6,3,1,5,4","8","","","","",""
"single-stim-button","46","204594","0.0-9.0-5.0","2028","2","digit-span","true","0","","8382","","","response","","","","","","8382","1000","test","2,9,7,6,3,1,5,4","8","SubmitButton","8382","2,9,7,6,1,3,5,7","forward","false"
"html-keyboard-response","47","211909","0.0-11.0","2028","2","digit-span","true","0","","7312.4000000003725","<div class = centerbox><p class = block-text>Now, you will see some numbers, but this time you will enter them <strong>backward</strong>.<br><br>For example, you see <strong>“1—5”</strong>, and you will enter <strong>“5—1”</strong>.<br><br><br>Press <strong>""Enter/Return""</strong> to begin.</p></div>","13","start_reverse","","","","","","","","","","","","","","",""
"html-keyboard-response","48","212911","0.0-12.0-0.0","2028","2","digit-span","true","0","","null","<div class = centerbox><div class = center-text>2 Digits</p></div>","null","test_intro","","","","","","","","","","","","","","",""
"poldrack-multi-stim-multi-response","49","216315","0.0-12.0-1.0","2028","2","digit-span","true","0","","[-1]","","","stim","","[""<div class = centerbox><div class = digit-span-text>8</div></div>"",""<div class = centerbox><div class = digit-span-text>2</div></div>""]","[-1]","none","[1000,1000]","2400","0","test","8,2","2","","","","",""
"single-stim-button","50","218902","0.0-12.0-2.0","2028","2","digit-span","true","0","","2585","","","response","","","","","","2585","1000","test","8,2","2","SubmitButton","2585","2,8","practice","true"
"html-keyboard-response","51","228905","0.0-12.0-3.0","2028","2","digit-span","true","0","","null","<div class = centerbox><div class = center-block-text><span style=""color:green"">Correct!</span></div></div>","null","feedback","","","","","","","","","","","","","","",""
"html-keyboard-response","52","229907","0.0-12.0-4.0","2028","2","digit-span","true","0","","null","<div class = centerbox><div class = center-text>2 Digits</p></div>","null","test_intro","","","","","","","","","","","","","","",""
"poldrack-multi-stim-multi-response","53","233310","0.0-12.0-5.0","2028","2","digit-span","true","0","","[-1]","","","stim","","[""<div class = centerbox><div class = digit-span-text>5</div></div>"",""<div class = centerbox><div class = digit-span-text>6</div></div>""]","[-1]","none","[1000,1000]","2400","0","test","5,6","2","","","","",""
"single-stim-button","54","235852","0.0-12.0-6.0","2028","2","digit-span","true","0","","2540","","","response","","","","","","2540","1000","test","5,6","2","SubmitButton","2540","6,5","practice","true"
"html-keyboard-response","55","236855","0.0-13.0-0.0","2028","2","digit-span","true","0","","null","<div class = centerbox><div class = center-text>2 Digits</p></div>","null","test_intro","","","","","","","","","","","","","","",""
"poldrack-multi-stim-multi-response","56","240258","0.0-13.0-1.0","2028","2","digit-span","true","0","","[-1]","","","stim","","[""<div class = centerbox><div class = digit-span-text>2</div></div>"",""<div class = centerbox><div class = digit-span-text>5</div></div>""]","[-1]","none","[1000,1000]","2400","0","test","2,5","2","","","","",""
"single-stim-button","57","242305","0.0-13.0-2.0","2028","2","digit-span","true","0","","2045","","","response","","","","","","2045","1000","test","2,5","2","SubmitButton","2045","5,2","reverse","true"
"html-keyboard-response","58","243308","0.0-13.0-3.0","2028","2","digit-span","true","0","","null","<div class = centerbox><div class = center-text>2 Digits</p></div>","null","test_intro","","","","","","","","","","","","","","",""
"poldrack-multi-stim-multi-response","59","246711","0.0-13.0-4.0","2028","2","digit-span","true","0","","[-1]","","","stim","","[""<div class = centerbox><div class = digit-span-text>6</div></div>"",""<div class = centerbox><div class = digit-span-text>3</div></div>""]","[-1]","none","[1000,1000]","2400","0","test","6,3","2","","","","",""
"single-stim-button","60","249324","0.0-13.0-5.0","2028","2","digit-span","true","0","","2611","","","response","","","","","","2611","1000","test","6,3","2","SubmitButton","2611","3,6","reverse","true"
"html-keyboard-response","61","250327","0.0-14.0-0.0","2028","2","digit-span","true","0","","null","<div class = centerbox><div class = center-text>3 Digits</p></div>","null","test_intro","","","","","","","","","","","","","","",""
"poldrack-multi-stim-multi-response","62","254930","0.0-14.0-1.0","2028","2","digit-span","true","0","","[-1]","","","stim","","[""<div class = centerbox><div class = digit-span-text>5</div></div>"",""<div class = centerbox><div class = digit-span-text>7</div></div>"",""<div class = centerbox><div class = digit-span-text>4</div></div>""]","[-1]","none","[1000,1000,1000]","3600","0","test","5,7,4","3","","","","",""
"single-stim-button","63","257928","0.0-14.0-2.0","2028","2","digit-span","true","0","","2996","","","response","","","","","","2996","1000","test","5,7,4","3","SubmitButton","2996","4,7,5","reverse","true"
"html-keyboard-response","64","258930","0.0-14.0-3.0","2028","2","digit-span","true","0","","null","<div class = centerbox><div class = center-text>3 Digits</p></div>","null","test_intro","","","","","","","","","","","","","","",""
"poldrack-multi-stim-multi-response","65","263533","0.0-14.0-4.0","2028","2","digit-span","true","0","","[-1]","","","stim","","[""<div class = centerbox><div class = digit-span-text>2</div></div>"",""<div class = centerbox><div class = digit-span-text>5</div></div>"",""<div class = centerbox><div class = digit-span-text>9</div></div>""]","[-1]","none","[1000,1000,1000]","3600","0","test","2,5,9","3","","","","",""
"single-stim-button","66","266868","0.0-14.0-5.0","2028","2","digit-span","true","0","","3333","","","response","","","","","","3333","1000","test","2,5,9","3","SubmitButton","3333","9,5,2","reverse","true"
"html-keyboard-response","67","267872","0.0-15.0-0.0","2028","2","digit-span","true","0","","null","<div class = centerbox><div class = center-text>4 Digits</p></div>","null","test_intro","","","","","","","","","","","","","","",""
"poldrack-multi-stim-multi-response","68","273675","0.0-15.0-1.0","2028","2","digit-span","true","0","","[-1]","","","stim","","[""<div class = centerbox><div class = digit-span-text>7</div></div>"",""<div class = centerbox><div class = digit-span-text>2</div></div>"",""<div class = centerbox><div class = digit-span-text>9</div></div>"",""<div class = centerbox><div class = digit-span-text>6</div></div>""]","[-1]","none","[1000,1000,1000,1000]","4800","0","test","7,2,9,6","4","","","","",""
"single-stim-button","69","277273","0.0-15.0-2.0","2028","2","digit-span","true","0","","3596","","","response","","","","","","3596","1000","test","7,2,9,6","4","SubmitButton","3596","6,9,2,7","reverse","true"
"html-keyboard-response","70","278277","0.0-15.0-3.0","2028","2","digit-span","true","0","","null","<div class = centerbox><div class = center-text>4 Digits</p></div>","null","test_intro","","","","","","","","","","","","","","",""
"poldrack-multi-stim-multi-response","71","284080","0.0-15.0-4.0","2028","2","digit-span","true","0","","[-1]","","","stim","","[""<div class = centerbox><div class = digit-span-text>8</div></div>"",""<div class = centerbox><div class = digit-span-text>4</div></div>"",""<div class = centerbox><div class = digit-span-text>9</div></div>"",""<div class = centerbox><div class = digit-span-text>3</div></div>""]","[-1]","none","[1000,1000,1000,1000]","4800","0","test","8,4,9,3","4","","","","",""
"single-stim-button","72","287599","0.0-15.0-5.0","2028","2","digit-span","true","0","","3517","","","response","","","","","","3517","1000","test","8,4,9,3","4","SubmitButton","3517","3,9,4,8","reverse","true"
"html-keyboard-response","73","288601","0.0-16.0-0.0","2028","2","digit-span","true","0","","null","<div class = centerbox><div class = center-text>5 Digits</p></div>","null","test_intro","","","","","","","","","","","","","","",""
"poldrack-multi-stim-multi-response","74","295604","0.0-16.0-1.0","2028","2","digit-span","true","0","","[-1]","","","stim","","[""<div class = centerbox><div class = digit-span-text>4</div></div>"",""<div class = centerbox><div class = digit-span-text>1</div></div>"",""<div class = centerbox><div class = digit-span-text>3</div></div>"",""<div class = centerbox><div class = digit-span-text>5</div></div>"",""<div class = centerbox><div class = digit-span-text>7</div></div>""]","[-1]","none","[1000,1000,1000,1000,1000]","6000","0","test","4,1,3,5,7","5","","","","",""
"single-stim-button","75","300362","0.0-16.0-2.0","2028","2","digit-span","true","0","","4757","","","response","","","","","","4757","1000","test","4,1,3,5,7","5","SubmitButton","4757","7,5,3,1,4","reverse","true"
"html-keyboard-response","76","301365","0.0-16.0-3.0","2028","2","digit-span","true","0","","null","<div class = centerbox><div class = center-text>5 Digits</p></div>","null","test_intro","","","","","","","","","","","","","","",""
"poldrack-multi-stim-multi-response","77","308368","0.0-16.0-4.0","2028","2","digit-span","true","0","","[-1]","","","stim","","[""<div class = centerbox><div class = digit-span-text>9</div></div>"",""<div class = centerbox><div class = digit-span-text>7</div></div>"",""<div class = centerbox><div class = digit-span-text>8</div></div>"",""<div class = centerbox><div class = digit-span-text>5</div></div>"",""<div class = centerbox><div class = digit-span-text>2</div></div>""]","[-1]","none","[1000,1000,1000,1000,1000]","6000","0","test","9,7,8,5,2","5","","","","",""
"single-stim-button","78","313472","0.0-16.0-5.0","2028","2","digit-span","true","0","","5102","","","response","","","","","","5102","1000","test","9,7,8,5,2","5","SubmitButton","5102","2,5,8,7,9","reverse","true"
"html-keyboard-response","79","314475","0.0-17.0-0.0","2028","2","digit-span","true","0","","null","<div class = centerbox><div class = center-text>6 Digits</p></div>","null","test_intro","","","","","","","","","","","","","","",""
"poldrack-multi-stim-multi-response","80","322678","0.0-17.0-1.0","2028","2","digit-span","true","0","","[-1]","","","stim","","[""<div class = centerbox><div class = digit-span-text>1</div></div>"",""<div class = centerbox><div class = digit-span-text>6</div></div>"",""<div class = centerbox><div class = digit-span-text>5</div></div>"",""<div class = centerbox><div class = digit-span-text>2</div></div>"",""<div class = centerbox><div class = digit-span-text>9</div></div>"",""<div class = centerbox><div class = digit-span-text>8</div></div>""]","[-1]","none","[1000,1000,1000,1000,1000,1000]","7200","0","test","1,6,5,2,9,8","6","","","","",""
"single-stim-button","81","329525","0.0-17.0-2.0","2028","2","digit-span","true","0","","6846","","","response","","","","","","6846","1000","test","1,6,5,2,9,8","6","SubmitButton","6846","8,9,2,5,6,1","reverse","true"
"html-keyboard-response","82","330528","0.0-17.0-3.0","2028","2","digit-span","true","0","","null","<div class = centerbox><div class = center-text>6 Digits</p></div>","null","test_intro","","","","","","","","","","","","","","",""
"poldrack-multi-stim-multi-response","83","338731","0.0-17.0-4.0","2028","2","digit-span","true","0","","[-1]","","","stim","","[""<div class = centerbox><div class = digit-span-text>3</div></div>"",""<div class = centerbox><div class = digit-span-text>6</div></div>"",""<div class = centerbox><div class = digit-span-text>7</div></div>"",""<div class = centerbox><div class = digit-span-text>1</div></div>"",""<div class = centerbox><div class = digit-span-text>9</div></div>"",""<div class = centerbox><div class = digit-span-text>4</div></div>""]","[-1]","none","[1000,1000,1000,1000,1000,1000]","7200","0","test","3,6,7,1,9,4","6","","","","",""
"single-stim-button","84","346875","0.0-17.0-5.0","2028","2","digit-span","true","0","","8142","","","response","","","","","","8142","1000","test","3,6,7,1,9,4","6","SubmitButton","8142","4,9,7,1,6,3","reverse","false"
"html-keyboard-response","85","347878","0.0-18.0-0.0","2028","2","digit-span","true","0","","null","<div class = centerbox><div class = center-text>7 Digits</p></div>","null","test_intro","","","","","","","","","","","","","","",""
"poldrack-multi-stim-multi-response","86","357281","0.0-18.0-1.0","2028","2","digit-span","true","0","","[-1]","","","stim","","[""<div class = centerbox><div class = digit-span-text>8</div></div>"",""<div class = centerbox><div class = digit-span-text>5</div></div>"",""<div class = centerbox><div class = digit-span-text>9</div></div>"",""<div class = centerbox><div class = digit-span-text>2</div></div>"",""<div class = centerbox><div class = digit-span-text>3</div></div>"",""<div class = centerbox><div class = digit-span-text>4</div></div>"",""<div class = centerbox><div class = digit-span-text>2</div></div>""]","[-1]","none","[1000,1000,1000,1000,1000,1000,1000]","8400","0","test","8,5,9,2,3,4,2","7","","","","",""
"single-stim-button","87","365284","0.0-18.0-2.0","2028","2","digit-span","true","0","","8001","","","response","","","","","","8001","1000","test","8,5,9,2,3,4,2","7","SubmitButton","8001","2,4,3,2,9,5,8","reverse","true"
"html-keyboard-response","88","366286","0.0-18.0-3.0","2028","2","digit-span","true","0","","null","<div class = centerbox><div class = center-text>7 Digits</p></div>","null","test_intro","","","","","","","","","","","","","","",""
"poldrack-multi-stim-multi-response","89","375689","0.0-18.0-4.0","2028","2","digit-span","true","0","","[-1]","","","stim","","[""<div class = centerbox><div class = digit-span-text>4</div></div>"",""<div class = centerbox><div class = digit-span-text>5</div></div>"",""<div class = centerbox><div class = digit-span-text>7</div></div>"",""<div class = centerbox><div class = digit-span-text>9</div></div>"",""<div class = centerbox><div class = digit-span-text>2</div></div>"",""<div class = centerbox><div class = digit-span-text>8</div></div>"",""<div class = centerbox><div class = digit-span-text>1</div></div>""]","[-1]","none","[1000,1000,1000,1000,1000,1000,1000]","8400","0","test","4,5,7,9,2,8,1","7","","","","",""
"single-stim-button","90","384667","0.0-18.0-5.0","2028","2","digit-span","true","0","","8975","","","response","","","","","","8975","1000","test","4,5,7,9,2,8,1","7","SubmitButton","8975","1,8,2,5,7,9,1","reverse","false"
"html-keyboard-response","91","385669","0.0-19.0-0.0","2028","2","digit-span","true","0","","null","<div class = centerbox><div class = center-text>8 Digits</p></div>","null","test_intro","","","","","","","","","","","","","","",""
"poldrack-multi-stim-multi-response","92","396273","0.0-19.0-1.0","2028","2","digit-span","true","0","","[-1]","","","stim","","[""<div class = centerbox><div class = digit-span-text>6</div></div>"",""<div class = centerbox><div class = digit-span-text>9</div></div>"",""<div class = centerbox><div class = digit-span-text>1</div></div>"",""<div class = centerbox><div class = digit-span-text>6</div></div>"",""<div class = centerbox><div class = digit-span-text>3</div></div>"",""<div class = centerbox><div class = digit-span-text>2</div></div>"",""<div class = centerbox><div class = digit-span-text>5</div></div>"",""<div class = centerbox><div class = digit-span-text>8</div></div>""]","[-1]","none","[1000,1000,1000,1000,1000,1000,1000,1000]","9600","0","test","6,9,1,6,3,2,5,8","8","","","","",""
"single-stim-button","93","420006","0.0-19.0-2.0","2028","2","digit-span","true","0","","23731","","","response","","","","","","23731","1000","test","6,9,1,6,3,2,5,8","8","SubmitButton","23731","9,5,6,3,1,9,3,6","reverse","false"
"html-keyboard-response","94","421009","0.0-19.0-3.0","2028","2","digit-span","true","0","","null","<div class = centerbox><div class = center-text>8 Digits</p></div>","null","test_intro","","","","","","","","","","","","","","",""
"poldrack-multi-stim-multi-response","95","431612","0.0-19.0-4.0","2028","2","digit-span","true","0","","[-1]","","","stim","","[""<div class = centerbox><div class = digit-span-text>3</div></div>"",""<div class = centerbox><div class = digit-span-text>1</div></div>"",""<div class = centerbox><div class = digit-span-text>7</div></div>"",""<div class = centerbox><div class = digit-span-text>9</div></div>"",""<div class = centerbox><div class = digit-span-text>5</div></div>"",""<div class = centerbox><div class = digit-span-text>4</div></div>"",""<div class = centerbox><div class = digit-span-text>8</div></div>"",""<div class = centerbox><div class = digit-span-text>2</div></div>""]","[-1]","none","[1000,1000,1000,1000,1000,1000,1000,1000]","9600","0","test","3,1,7,9,5,4,8,2","8","","","","",""
"single-stim-button","96","438905","0.0-19.0-5.0","2028","2","digit-span","true","0","","7291","","","response","","","","","","7291","1000","test","3,1,7,9,5,4,8,2","8","SubmitButton","7291","2,6,3,5,9,6,5,8","reverse","false"
"image-keyboard-response","97","440916","0.0-20.0","2028","2","digit-span","true","0","","2008.8999999999069","img/trophy2.jpeg","13","end","","","","","","","","","","","","","","",""
