"trial_type","trial_index","time_elapsed","internal_node_id","subject","exp_id","full_screen","focus_shifts","success","rt","stimulus","key_press","trial_id","view_history","stimuli","key_presses","possible_responses","stim_durations","block_duration","timing_post_trial","exp_stage","sequence","num_digits","mouse_click","stim_duration","response","condition","correct"
"pavlovia","0","2744","0.0-0.0","2002","digit-span","true","0","","","","","","","","","","","","","","","","","","","",""
"fullscreen","1","6420","0.0-1.0","2002","digit-span","true","0","true","","","","","","","","","","","","","","","","","","",""
"html-keyboard-response","2","15524","0.0-2.0-0.0","2002","digit-span","true","0","","9099.5","<div class = centerbox><p class = center-block-text>Welcome to the number game! It will take less than 5 minutes. Press <strong>""Enter/Return""</strong> to begin.</p></div>","13","instruction","","","","","","","","","","","","","","",""
"instructions","3","23535","0.0-2.0-1.0","2002","digit-span","true","0","","8009.200000762939","","","instruction","[{""page_index"":0,""viewing_time"":8008.299999237061}]","","","","","","","","","","","","","",""
"instructions","4","31437","0.0-2.0-2.0","2002","digit-span","true","0","","6885.5","","","instruction","[{""page_index"":0,""viewing_time"":6884.700000762939}]","","","","","","","","","","","","","",""
"html-keyboard-response","5","33452","0.0-3.0-0.0","2002","digit-span","true","0","","null","<div class = centerbox><div class = center-text>2 Digits</p></div>","null","test_intro","","","","","","","","","","","","","","",""
"poldrack-multi-stim-multi-response","6","36885","0.0-3.0-1.0","2002","digit-span","true","0","","[-1]","","","stim","","[""<div class = centerbox><div class = digit-span-text>2</div></div>"",""<div class = centerbox><div class = digit-span-text>9</div></div>""]","[-1]","none","[1000,1000]","2400","0","test","2,9","2","","","","",""
"single-stim-button","7","41176","0.0-3.0-2.0","2002","digit-span","true","0","","4284","","","response","","","","","","4284","1000","test","2,9","2","SubmitButton","4284","2,9","forward","true"
"html-keyboard-response","8","42187","0.0-3.0-3.0","2002","digit-span","true","0","","null","<div class = centerbox><div class = center-text>2 Digits</p></div>","null","test_intro","","","","","","","","","","","","","","",""
"poldrack-multi-stim-multi-response","9","45600","0.0-3.0-4.0","2002","digit-span","true","0","","[-1]","","","stim","","[""<div class = centerbox><div class = digit-span-text>4</div></div>"",""<div class = centerbox><div class = digit-span-text>6</div></div>""]","[-1]","none","[1000,1000]","2400","0","test","4,6","2","","","","",""
"single-stim-button","10","50321","0.0-3.0-5.0","2002","digit-span","true","0","","4717","","","response","","","","","","4717","1000","test","4,6","2","SubmitButton","4717","2,4,6","forward","false"
"html-keyboard-response","11","51337","0.0-4.0-0.0","2002","digit-span","true","0","","null","<div class = centerbox><div class = center-text>3 Digits</p></div>","null","test_intro","","","","","","","","","","","","","","",""
"poldrack-multi-stim-multi-response","12","55954","0.0-4.0-1.0","2002","digit-span","true","0","","[-1]","","","stim","","[""<div class = centerbox><div class = digit-span-text>3</div></div>"",""<div class = centerbox><div class = digit-span-text>8</div></div>"",""<div class = centerbox><div class = digit-span-text>6</div></div>""]","[-1]","none","[1000,1000,1000]","3600","0","test","3,8,6","3","","","","",""
"single-stim-button","13","60104","0.0-4.0-2.0","2002","digit-span","true","0","","4146","","","response","","","","","","4146","1000","test","3,8,6","3","SubmitButton","4146","3,8,6","forward","true"
"html-keyboard-response","14","61109","0.0-4.0-3.0","2002","digit-span","true","0","","null","<div class = centerbox><div class = center-text>3 Digits</p></div>","null","test_intro","","","","","","","","","","","","","","",""
"poldrack-multi-stim-multi-response","15","65716","0.0-4.0-4.0","2002","digit-span","true","0","","[-1]","","","stim","","[""<div class = centerbox><div class = digit-span-text>6</div></div>"",""<div class = centerbox><div class = digit-span-text>1</div></div>"",""<div class = centerbox><div class = digit-span-text>2</div></div>""]","[-1]","none","[1000,1000,1000]","3600","0","test","6,1,2","3","","","","",""
"single-stim-button","16","70228","0.0-4.0-5.0","2002","digit-span","true","0","","4509","","","response","","","","","","4509","1000","test","6,1,2","3","SubmitButton","4509","6,1,2","forward","true"
"html-keyboard-response","17","71235","0.0-5.0-0.0","2002","digit-span","true","0","","null","<div class = centerbox><div class = center-text>4 Digits</p></div>","null","test_intro","","","","","","","","","","","","","","",""
"poldrack-multi-stim-multi-response","18","77046","0.0-5.0-1.0","2002","digit-span","true","0","","[-1]","","","stim","","[""<div class = centerbox><div class = digit-span-text>3</div></div>"",""<div class = centerbox><div class = digit-span-text>4</div></div>"",""<div class = centerbox><div class = digit-span-text>1</div></div>"",""<div class = centerbox><div class = digit-span-text>7</div></div>""]","[-1]","none","[1000,1000,1000,1000]","4800","0","test","3,4,1,7","4","","","","",""
"single-stim-button","19","82498","0.0-5.0-2.0","2002","digit-span","true","0","","5448","","","response","","","","","","5448","1000","test","3,4,1,7","4","SubmitButton","5448","3,4,1,7","forward","true"
"html-keyboard-response","20","83514","0.0-5.0-3.0","2002","digit-span","true","0","","null","<div class = centerbox><div class = center-text>4 Digits</p></div>","null","test_intro","","","","","","","","","","","","","","",""
"poldrack-multi-stim-multi-response","21","89333","0.0-5.0-4.0","2002","digit-span","true","0","","[-1]","","","stim","","[""<div class = centerbox><div class = digit-span-text>6</div></div>"",""<div class = centerbox><div class = digit-span-text>1</div></div>"",""<div class = centerbox><div class = digit-span-text>5</div></div>"",""<div class = centerbox><div class = digit-span-text>8</div></div>""]","[-1]","none","[1000,1000,1000,1000]","4800","0","test","6,1,5,8","4","","","","",""
"single-stim-button","22","94407","0.0-5.0-5.0","2002","digit-span","true","0","","5070","","","response","","","","","","5070","1000","test","6,1,5,8","4","SubmitButton","5070","6,1,5,8","forward","true"
"html-keyboard-response","23","95416","0.0-6.0-0.0","2002","digit-span","true","0","","null","<div class = centerbox><div class = center-text>5 Digits</p></div>","null","test_intro","","","","","","","","","","","","","","",""
"poldrack-multi-stim-multi-response","24","102428","0.0-6.0-1.0","2002","digit-span","true","0","","[-1]","","","stim","","[""<div class = centerbox><div class = digit-span-text>8</div></div>"",""<div class = centerbox><div class = digit-span-text>4</div></div>"",""<div class = centerbox><div class = digit-span-text>2</div></div>"",""<div class = centerbox><div class = digit-span-text>3</div></div>"",""<div class = centerbox><div class = digit-span-text>9</div></div>""]","[-1]","none","[1000,1000,1000,1000,1000]","6000","0","test","8,4,2,3,9","5","","","","",""
"single-stim-button","25","109331","0.0-6.0-2.0","2002","digit-span","true","0","","6901","","","response","","","","","","6901","1000","test","8,4,2,3,9","5","SubmitButton","6901","8,4,2,3,9","forward","true"
"html-keyboard-response","26","110340","0.0-6.0-3.0","2002","digit-span","true","0","","null","<div class = centerbox><div class = center-text>5 Digits</p></div>","null","test_intro","","","","","","","","","","","","","","",""
"poldrack-multi-stim-multi-response","27","117351","0.0-6.0-4.0","2002","digit-span","true","0","","[-1]","","","stim","","[""<div class = centerbox><div class = digit-span-text>5</div></div>"",""<div class = centerbox><div class = digit-span-text>2</div></div>"",""<div class = centerbox><div class = digit-span-text>1</div></div>"",""<div class = centerbox><div class = digit-span-text>8</div></div>"",""<div class = centerbox><div class = digit-span-text>6</div></div>""]","[-1]","none","[1000,1000,1000,1000,1000]","6000","0","test","5,2,1,8,6","5","","","","",""
"single-stim-button","28","122813","0.0-6.0-5.0","2002","digit-span","true","0","","5458","","","response","","","","","","5458","1000","test","5,2,1,8,6","5","SubmitButton","5458","5,1,2,8,6","forward","false"
"html-keyboard-response","29","123818","0.0-7.0-0.0","2002","digit-span","true","0","","null","<div class = centerbox><div class = center-text>6 Digits</p></div>","null","test_intro","","","","","","","","","","","","","","",""
"poldrack-multi-stim-multi-response","30","132032","0.0-7.0-1.0","2002","digit-span","true","0","","[-1]","","","stim","","[""<div class = centerbox><div class = digit-span-text>3</div></div>"",""<div class = centerbox><div class = digit-span-text>8</div></div>"",""<div class = centerbox><div class = digit-span-text>9</div></div>"",""<div class = centerbox><div class = digit-span-text>1</div></div>"",""<div class = centerbox><div class = digit-span-text>7</div></div>"",""<div class = centerbox><div class = digit-span-text>4</div></div>""]","[-1]","none","[1000,1000,1000,1000,1000,1000]","7200","0","test","3,8,9,1,7,4","6","","","","",""
"single-stim-button","31","141689","0.0-7.0-2.0","2002","digit-span","true","0","","9654","","","response","","","","","","9654","1000","test","3,8,9,1,7,4","6","SubmitButton","9654","3,8,9,7,4","forward","false"
"html-keyboard-response","32","142695","0.0-7.0-3.0","2002","digit-span","true","0","","null","<div class = centerbox><div class = center-text>6 Digits</p></div>","null","test_intro","","","","","","","","","","","","","","",""
"poldrack-multi-stim-multi-response","33","150911","0.0-7.0-4.0","2002","digit-span","true","0","","[-1]","","","stim","","[""<div class = centerbox><div class = digit-span-text>7</div></div>"",""<div class = centerbox><div class = digit-span-text>9</div></div>"",""<div class = centerbox><div class = digit-span-text>6</div></div>"",""<div class = centerbox><div class = digit-span-text>4</div></div>"",""<div class = centerbox><div class = digit-span-text>8</div></div>"",""<div class = centerbox><div class = digit-span-text>3</div></div>""]","[-1]","none","[1000,1000,1000,1000,1000,1000]","7200","0","test","7,9,6,4,8,3","6","","","","",""
"single-stim-button","34","160897","0.0-7.0-5.0","2002","digit-span","true","0","","9983","","","response","","","","","","9983","1000","test","7,9,6,4,8,3","6","SubmitButton","9983","7,9,8,4,3,6","forward","false"
"html-keyboard-response","35","174074","0.0-11.0","2002","digit-span","true","0","","13172.79999923706","<div class = centerbox><p class = block-text>Now, you will see some numbers, but this time you will enter them <strong>backward</strong>.<br><br>For example, you see <strong>“1—5”</strong>, and you will enter <strong>“5—1”</strong>.<br><br><br>Press <strong>""Enter/Return""</strong> to begin.</p></div>","13","start_reverse","","","","","","","","","","","","","","",""
"html-keyboard-response","36","175093","0.0-12.0-0.0","2002","digit-span","true","0","","null","<div class = centerbox><div class = center-text>2 Digits</p></div>","null","test_intro","","","","","","","","","","","","","","",""
"poldrack-multi-stim-multi-response","37","178507","0.0-12.0-1.0","2002","digit-span","true","0","","[-1]","","","stim","","[""<div class = centerbox><div class = digit-span-text>8</div></div>"",""<div class = centerbox><div class = digit-span-text>2</div></div>""]","[-1]","none","[1000,1000]","2400","0","test","8,2","2","","","","",""
"single-stim-button","38","181588","0.0-12.0-2.0","2002","digit-span","true","0","","3078","","","response","","","","","","3078","1000","test","8,2","2","SubmitButton","3078","2,8","practice","true"
"html-keyboard-response","39","191594","0.0-12.0-3.0","2002","digit-span","true","0","","null","<div class = centerbox><div class = center-block-text><span style=""color:green"">Correct!</span></div></div>","null","feedback","","","","","","","","","","","","","","",""
"html-keyboard-response","40","192604","0.0-12.0-4.0","2002","digit-span","true","0","","null","<div class = centerbox><div class = center-text>2 Digits</p></div>","null","test_intro","","","","","","","","","","","","","","",""
"poldrack-multi-stim-multi-response","41","196015","0.0-12.0-5.0","2002","digit-span","true","0","","[-1]","","","stim","","[""<div class = centerbox><div class = digit-span-text>5</div></div>"",""<div class = centerbox><div class = digit-span-text>6</div></div>""]","[-1]","none","[1000,1000]","2400","0","test","5,6","2","","","","",""
"single-stim-button","42","199359","0.0-12.0-6.0","2002","digit-span","true","0","","3341","","","response","","","","","","3341","1000","test","5,6","2","SubmitButton","3341","6,5","practice","true"
"html-keyboard-response","43","200364","0.0-13.0-0.0","2002","digit-span","true","0","","null","<div class = centerbox><div class = center-text>2 Digits</p></div>","null","test_intro","","","","","","","","","","","","","","",""
"poldrack-multi-stim-multi-response","44","203776","0.0-13.0-1.0","2002","digit-span","true","0","","[-1]","","","stim","","[""<div class = centerbox><div class = digit-span-text>2</div></div>"",""<div class = centerbox><div class = digit-span-text>5</div></div>""]","[-1]","none","[1000,1000]","2400","0","test","2,5","2","","","","",""
"single-stim-button","45","206366","0.0-13.0-2.0","2002","digit-span","true","0","","2588","","","response","","","","","","2588","1000","test","2,5","2","SubmitButton","2588","5,2","reverse","true"
"html-keyboard-response","46","207384","0.0-13.0-3.0","2002","digit-span","true","0","","null","<div class = centerbox><div class = center-text>2 Digits</p></div>","null","test_intro","","","","","","","","","","","","","","",""
"poldrack-multi-stim-multi-response","47","210794","0.0-13.0-4.0","2002","digit-span","true","0","","[-1]","","","stim","","[""<div class = centerbox><div class = digit-span-text>6</div></div>"",""<div class = centerbox><div class = digit-span-text>3</div></div>""]","[-1]","none","[1000,1000]","2400","0","test","6,3","2","","","","",""
"single-stim-button","48","214153","0.0-13.0-5.0","2002","digit-span","true","0","","3357","","","response","","","","","","3357","1000","test","6,3","2","SubmitButton","3357","3,6","reverse","true"
"html-keyboard-response","49","215163","0.0-14.0-0.0","2002","digit-span","true","0","","null","<div class = centerbox><div class = center-text>3 Digits</p></div>","null","test_intro","","","","","","","","","","","","","","",""
"poldrack-multi-stim-multi-response","50","219776","0.0-14.0-1.0","2002","digit-span","true","0","","[-1]","","","stim","","[""<div class = centerbox><div class = digit-span-text>5</div></div>"",""<div class = centerbox><div class = digit-span-text>7</div></div>"",""<div class = centerbox><div class = digit-span-text>4</div></div>""]","[-1]","none","[1000,1000,1000]","3600","0","test","5,7,4","3","","","","",""
"single-stim-button","51","224359","0.0-14.0-2.0","2002","digit-span","true","0","","4581","","","response","","","","","","4581","1000","test","5,7,4","3","SubmitButton","4581","4,7,5","reverse","true"
"html-keyboard-response","52","225366","0.0-14.0-3.0","2002","digit-span","true","0","","null","<div class = centerbox><div class = center-text>3 Digits</p></div>","null","test_intro","","","","","","","","","","","","","","",""
"poldrack-multi-stim-multi-response","53","229980","0.0-14.0-4.0","2002","digit-span","true","0","","[-1]","","","stim","","[""<div class = centerbox><div class = digit-span-text>2</div></div>"",""<div class = centerbox><div class = digit-span-text>5</div></div>"",""<div class = centerbox><div class = digit-span-text>9</div></div>""]","[-1]","none","[1000,1000,1000]","3600","0","test","2,5,9","3","","","","",""
"single-stim-button","54","234273","0.0-14.0-5.0","2002","digit-span","true","0","","4289","","","response","","","","","","4289","1000","test","2,5,9","3","SubmitButton","4289","9,5,2","reverse","true"
"html-keyboard-response","55","235284","0.0-15.0-0.0","2002","digit-span","true","0","","null","<div class = centerbox><div class = center-text>4 Digits</p></div>","null","test_intro","","","","","","","","","","","","","","",""
"poldrack-multi-stim-multi-response","56","241091","0.0-15.0-1.0","2002","digit-span","true","0","","[-1]","","","stim","","[""<div class = centerbox><div class = digit-span-text>7</div></div>"",""<div class = centerbox><div class = digit-span-text>2</div></div>"",""<div class = centerbox><div class = digit-span-text>9</div></div>"",""<div class = centerbox><div class = digit-span-text>6</div></div>""]","[-1]","none","[1000,1000,1000,1000]","4800","0","test","7,2,9,6","4","","","","",""
"single-stim-button","57","246348","0.0-15.0-2.0","2002","digit-span","true","0","","5253","","","response","","","","","","5253","1000","test","7,2,9,6","4","SubmitButton","5253","6,9,7,2","reverse","false"
"html-keyboard-response","58","247360","0.0-15.0-3.0","2002","digit-span","true","0","","null","<div class = centerbox><div class = center-text>4 Digits</p></div>","null","test_intro","","","","","","","","","","","","","","",""
"poldrack-multi-stim-multi-response","59","253176","0.0-15.0-4.0","2002","digit-span","true","0","","[-1]","","","stim","","[""<div class = centerbox><div class = digit-span-text>8</div></div>"",""<div class = centerbox><div class = digit-span-text>4</div></div>"",""<div class = centerbox><div class = digit-span-text>9</div></div>"",""<div class = centerbox><div class = digit-span-text>3</div></div>""]","[-1]","none","[1000,1000,1000,1000]","4800","0","test","8,4,9,3","4","","","","",""
"single-stim-button","60","263356","0.0-15.0-5.0","2002","digit-span","true","0","","10176","","","response","","","","","","10176","1000","test","8,4,9,3","4","SubmitButton","10176","3,9,4,3","reverse","false"
"image-keyboard-response","61","267192","0.0-20.0","2002","digit-span","true","0","","3831.7000007629395","img/trophy2.jpeg","13","end","","","","","","","","","","","","","","",""
