"trial_type","trial_index","time_elapsed","internal_node_id","subject","order","exp_id","full_screen","focus_shifts","success","rt","stimulus","key_press","trial_id","view_history","stimuli","key_presses","possible_responses","stim_durations","block_duration","timing_post_trial","exp_stage","sequence","num_digits","mouse_click","stim_duration","response","condition","correct"
"pavlovia","0","2141","0.0-0.0","2016","2","digit-span","true","0","","","","","","","","","","","","","","","","","","","",""
"fullscreen","1","9709","0.0-1.0","2016","2","digit-span","true","0","true","","","","","","","","","","","","","","","","","","",""
"html-keyboard-response","2","15933","0.0-2.0-0.0","2016","2","digit-span","true","0","","6220.400000095367","<div class = centerbox><p class = center-block-text>Welcome to the number game! It will take less than 5 minutes. Press <strong>""Enter/Return""</strong> to begin.</p></div>","13","instruction","","","","","","","","","","","","","","",""
"instructions","3","26349","0.0-2.0-1.0","2016","2","digit-span","true","0","","10415.300000190735","","","instruction","[{""page_index"":0,""viewing_time"":10415}]","","","","","","","","","","","","","",""
"instructions","4","34121","0.0-2.0-2.0","2016","2","digit-span","true","0","","6764.699999809265","","","instruction","[{""page_index"":0,""viewing_time"":6764.5}]","","","","","","","","","","","","","",""
"html-keyboard-response","5","36143","0.0-3.0-0.0","2016","2","digit-span","true","0","","null","<div class = centerbox><div class = center-text>2 Digits</p></div>","null","test_intro","","","","","","","","","","","","","","",""
"poldrack-multi-stim-multi-response","6","39560","0.0-3.0-1.0","2016","2","digit-span","true","0","","[-1]","","","stim","","[""<div class = centerbox><div class = digit-span-text>2</div></div>"",""<div class = centerbox><div class = digit-span-text>9</div></div>""]","[-1]","none","[1000,1000]","2400","0","test","2,9","2","","","","",""
"single-stim-button","7","47818","0.0-3.0-2.0","2016","2","digit-span","true","0","","8255","","","response","","","","","","8255","1000","test","2,9","2","SubmitButton","8255","2,9","forward","true"
"html-keyboard-response","8","48824","0.0-3.0-3.0","2016","2","digit-span","true","0","","null","<div class = centerbox><div class = center-text>2 Digits</p></div>","null","test_intro","","","","","","","","","","","","","","",""
"poldrack-multi-stim-multi-response","9","52238","0.0-3.0-4.0","2016","2","digit-span","true","0","","[-1]","","","stim","","[""<div class = centerbox><div class = digit-span-text>4</div></div>"",""<div class = centerbox><div class = digit-span-text>6</div></div>""]","[-1]","none","[1000,1000]","2400","0","test","4,6","2","","","","",""
"single-stim-button","10","59024","0.0-3.0-5.0","2016","2","digit-span","true","0","","6783","","","response","","","","","","6783","1000","test","4,6","2","SubmitButton","6783","4,6","forward","true"
"html-keyboard-response","11","60031","0.0-4.0-0.0","2016","2","digit-span","true","0","","null","<div class = centerbox><div class = center-text>3 Digits</p></div>","null","test_intro","","","","","","","","","","","","","","",""
"poldrack-multi-stim-multi-response","12","64646","0.0-4.0-1.0","2016","2","digit-span","true","0","","[-1]","","","stim","","[""<div class = centerbox><div class = digit-span-text>3</div></div>"",""<div class = centerbox><div class = digit-span-text>8</div></div>"",""<div class = centerbox><div class = digit-span-text>6</div></div>""]","[-1]","none","[1000,1000,1000]","3600","0","test","3,8,6","3","","","","",""
"single-stim-button","13","74948","0.0-4.0-2.0","2016","2","digit-span","true","0","","10300","","","response","","","","","","10300","1000","test","3,8,6","3","SubmitButton","10300","3,8,6","forward","true"
"html-keyboard-response","14","75950","0.0-4.0-3.0","2016","2","digit-span","true","0","","null","<div class = centerbox><div class = center-text>3 Digits</p></div>","null","test_intro","","","","","","","","","","","","","","",""
"poldrack-multi-stim-multi-response","15","80566","0.0-4.0-4.0","2016","2","digit-span","true","0","","[-1]","","","stim","","[""<div class = centerbox><div class = digit-span-text>6</div></div>"",""<div class = centerbox><div class = digit-span-text>1</div></div>"",""<div class = centerbox><div class = digit-span-text>2</div></div>""]","[-1]","none","[1000,1000,1000]","3600","0","test","6,1,2","3","","","","",""
"single-stim-button","16","87236","0.0-4.0-5.0","2016","2","digit-span","true","0","","6669","","","response","","","","","","6669","1000","test","6,1,2","3","SubmitButton","6669","6,1,2","forward","true"
"html-keyboard-response","17","88239","0.0-5.0-0.0","2016","2","digit-span","true","0","","null","<div class = centerbox><div class = center-text>4 Digits</p></div>","null","test_intro","","","","","","","","","","","","","","",""
"poldrack-multi-stim-multi-response","18","94055","0.0-5.0-1.0","2016","2","digit-span","true","0","","[-1]","","","stim","","[""<div class = centerbox><div class = digit-span-text>3</div></div>"",""<div class = centerbox><div class = digit-span-text>4</div></div>"",""<div class = centerbox><div class = digit-span-text>1</div></div>"",""<div class = centerbox><div class = digit-span-text>7</div></div>""]","[-1]","none","[1000,1000,1000,1000]","4800","0","test","3,4,1,7","4","","","","",""
"single-stim-button","19","104165","0.0-5.0-2.0","2016","2","digit-span","true","0","","10108","","","response","","","","","","10108","1000","test","3,4,1,7","4","SubmitButton","10108","3,4,1,7","forward","true"
"html-keyboard-response","20","105175","0.0-5.0-3.0","2016","2","digit-span","true","0","","null","<div class = centerbox><div class = center-text>4 Digits</p></div>","null","test_intro","","","","","","","","","","","","","","",""
"poldrack-multi-stim-multi-response","21","110991","0.0-5.0-4.0","2016","2","digit-span","true","0","","[-1]","","","stim","","[""<div class = centerbox><div class = digit-span-text>6</div></div>"",""<div class = centerbox><div class = digit-span-text>1</div></div>"",""<div class = centerbox><div class = digit-span-text>5</div></div>"",""<div class = centerbox><div class = digit-span-text>8</div></div>""]","[-1]","none","[1000,1000,1000,1000]","4800","0","test","6,1,5,8","4","","","","",""
"single-stim-button","22","122138","0.0-5.0-5.0","2016","2","digit-span","true","0","","11145","","","response","","","","","","11145","1000","test","6,1,5,8","4","SubmitButton","11145","6,1,5,8","forward","true"
"html-keyboard-response","23","123144","0.0-6.0-0.0","2016","2","digit-span","true","0","","null","<div class = centerbox><div class = center-text>5 Digits</p></div>","null","test_intro","","","","","","","","","","","","","","",""
"poldrack-multi-stim-multi-response","24","130159","0.0-6.0-1.0","2016","2","digit-span","true","0","","[-1]","","","stim","","[""<div class = centerbox><div class = digit-span-text>8</div></div>"",""<div class = centerbox><div class = digit-span-text>4</div></div>"",""<div class = centerbox><div class = digit-span-text>2</div></div>"",""<div class = centerbox><div class = digit-span-text>3</div></div>"",""<div class = centerbox><div class = digit-span-text>9</div></div>""]","[-1]","none","[1000,1000,1000,1000,1000]","6000","0","test","8,4,2,3,9","5","","","","",""
"single-stim-button","25","141736","0.0-6.0-2.0","2016","2","digit-span","true","0","","11575","","","response","","","","","","11575","1000","test","8,4,2,3,9","5","SubmitButton","11575","8,4,2,3,9","forward","true"
"html-keyboard-response","26","142743","0.0-6.0-3.0","2016","2","digit-span","true","0","","null","<div class = centerbox><div class = center-text>5 Digits</p></div>","null","test_intro","","","","","","","","","","","","","","",""
"poldrack-multi-stim-multi-response","27","149759","0.0-6.0-4.0","2016","2","digit-span","true","0","","[-1]","","","stim","","[""<div class = centerbox><div class = digit-span-text>5</div></div>"",""<div class = centerbox><div class = digit-span-text>2</div></div>"",""<div class = centerbox><div class = digit-span-text>1</div></div>"",""<div class = centerbox><div class = digit-span-text>8</div></div>"",""<div class = centerbox><div class = digit-span-text>6</div></div>""]","[-1]","none","[1000,1000,1000,1000,1000]","6000","0","test","5,2,1,8,6","5","","","","",""
"single-stim-button","28","171911","0.0-6.0-5.0","2016","2","digit-span","true","0","","22150","","","response","","","","","","22150","1000","test","5,2,1,8,6","5","SubmitButton","22150","5,2,1,8,6","forward","true"
"html-keyboard-response","29","172919","0.0-7.0-0.0","2016","2","digit-span","true","0","","null","<div class = centerbox><div class = center-text>6 Digits</p></div>","null","test_intro","","","","","","","","","","","","","","",""
"poldrack-multi-stim-multi-response","30","181135","0.0-7.0-1.0","2016","2","digit-span","true","0","","[-1]","","","stim","","[""<div class = centerbox><div class = digit-span-text>3</div></div>"",""<div class = centerbox><div class = digit-span-text>8</div></div>"",""<div class = centerbox><div class = digit-span-text>9</div></div>"",""<div class = centerbox><div class = digit-span-text>1</div></div>"",""<div class = centerbox><div class = digit-span-text>7</div></div>"",""<div class = centerbox><div class = digit-span-text>4</div></div>""]","[-1]","none","[1000,1000,1000,1000,1000,1000]","7200","0","test","3,8,9,1,7,4","6","","","","",""
"single-stim-button","31","194679","0.0-7.0-2.0","2016","2","digit-span","true","0","","13543","","","response","","","","","","13543","1000","test","3,8,9,1,7,4","6","SubmitButton","13543","3,8,9,1,7,4","forward","true"
"html-keyboard-response","32","195686","0.0-7.0-3.0","2016","2","digit-span","true","0","","null","<div class = centerbox><div class = center-text>6 Digits</p></div>","null","test_intro","","","","","","","","","","","","","","",""
"poldrack-multi-stim-multi-response","33","203897","0.0-7.0-4.0","2016","2","digit-span","true","0","","[-1]","","","stim","","[""<div class = centerbox><div class = digit-span-text>7</div></div>"",""<div class = centerbox><div class = digit-span-text>9</div></div>"",""<div class = centerbox><div class = digit-span-text>6</div></div>"",""<div class = centerbox><div class = digit-span-text>4</div></div>"",""<div class = centerbox><div class = digit-span-text>8</div></div>"",""<div class = centerbox><div class = digit-span-text>3</div></div>""]","[-1]","none","[1000,1000,1000,1000,1000,1000]","7200","0","test","7,9,6,4,8,3","6","","","","",""
"single-stim-button","34","217788","0.0-7.0-5.0","2016","2","digit-span","true","0","","13888","","","response","","","","","","13888","1000","test","7,9,6,4,8,3","6","SubmitButton","13888","7,9,6,4,8,3","forward","true"
"html-keyboard-response","35","218792","0.0-8.0-0.0","2016","2","digit-span","true","0","","null","<div class = centerbox><div class = center-text>7 Digits</p></div>","null","test_intro","","","","","","","","","","","","","","",""
"poldrack-multi-stim-multi-response","36","228207","0.0-8.0-1.0","2016","2","digit-span","true","0","","[-1]","","","stim","","[""<div class = centerbox><div class = digit-span-text>5</div></div>"",""<div class = centerbox><div class = digit-span-text>1</div></div>"",""<div class = centerbox><div class = digit-span-text>7</div></div>"",""<div class = centerbox><div class = digit-span-text>4</div></div>"",""<div class = centerbox><div class = digit-span-text>2</div></div>"",""<div class = centerbox><div class = digit-span-text>3</div></div>"",""<div class = centerbox><div class = digit-span-text>8</div></div>""]","[-1]","none","[1000,1000,1000,1000,1000,1000,1000]","8400","0","test","5,1,7,4,2,3,8","7","","","","",""
"single-stim-button","37","244939","0.0-8.0-2.0","2016","2","digit-span","true","0","","16730","","","response","","","","","","16730","1000","test","5,1,7,4,2,3,8","7","SubmitButton","16730","5,1,7,4,3,2,8","forward","false"
"html-keyboard-response","38","245943","0.0-8.0-3.0","2016","2","digit-span","true","0","","null","<div class = centerbox><div class = center-text>7 Digits</p></div>","null","test_intro","","","","","","","","","","","","","","",""
"poldrack-multi-stim-multi-response","39","255360","0.0-8.0-4.0","2016","2","digit-span","true","0","","[-1]","","","stim","","[""<div class = centerbox><div class = digit-span-text>9</div></div>"",""<div class = centerbox><div class = digit-span-text>8</div></div>"",""<div class = centerbox><div class = digit-span-text>5</div></div>"",""<div class = centerbox><div class = digit-span-text>2</div></div>"",""<div class = centerbox><div class = digit-span-text>1</div></div>"",""<div class = centerbox><div class = digit-span-text>6</div></div>"",""<div class = centerbox><div class = digit-span-text>3</div></div>""]","[-1]","none","[1000,1000,1000,1000,1000,1000,1000]","8400","0","test","9,8,5,2,1,6,3","7","","","","",""
"single-stim-button","40","271204","0.0-8.0-5.0","2016","2","digit-span","true","0","","15840","","","response","","","","","","15840","1000","test","9,8,5,2,1,6,3","7","SubmitButton","15840","9,8,5,2,1,6,3","forward","true"
"html-keyboard-response","41","272207","0.0-9.0-0.0","2016","2","digit-span","true","0","","null","<div class = centerbox><div class = center-text>8 Digits</p></div>","null","test_intro","","","","","","","","","","","","","","",""
"poldrack-multi-stim-multi-response","42","282823","0.0-9.0-1.0","2016","2","digit-span","true","0","","[-1]","","","stim","","[""<div class = centerbox><div class = digit-span-text>1</div></div>"",""<div class = centerbox><div class = digit-span-text>6</div></div>"",""<div class = centerbox><div class = digit-span-text>4</div></div>"",""<div class = centerbox><div class = digit-span-text>5</div></div>"",""<div class = centerbox><div class = digit-span-text>9</div></div>"",""<div class = centerbox><div class = digit-span-text>7</div></div>"",""<div class = centerbox><div class = digit-span-text>6</div></div>"",""<div class = centerbox><div class = digit-span-text>3</div></div>""]","[-1]","none","[1000,1000,1000,1000,1000,1000,1000,1000]","9600","0","test","1,6,4,5,9,7,6,3","8","","","","",""
"single-stim-button","43","302105","0.0-9.0-2.0","2016","2","digit-span","true","0","","19279","","","response","","","","","","19279","1000","test","1,6,4,5,9,7,6,3","8","SubmitButton","19279","1,6,4,5,9,7,8,3","forward","false"
"html-keyboard-response","44","303112","0.0-9.0-3.0","2016","2","digit-span","true","0","","null","<div class = centerbox><div class = center-text>8 Digits</p></div>","null","test_intro","","","","","","","","","","","","","","",""
"poldrack-multi-stim-multi-response","45","313727","0.0-9.0-4.0","2016","2","digit-span","true","0","","[-1]","","","stim","","[""<div class = centerbox><div class = digit-span-text>2</div></div>"",""<div class = centerbox><div class = digit-span-text>9</div></div>"",""<div class = centerbox><div class = digit-span-text>7</div></div>"",""<div class = centerbox><div class = digit-span-text>6</div></div>"",""<div class = centerbox><div class = digit-span-text>3</div></div>"",""<div class = centerbox><div class = digit-span-text>1</div></div>"",""<div class = centerbox><div class = digit-span-text>5</div></div>"",""<div class = centerbox><div class = digit-span-text>4</div></div>""]","[-1]","none","[1000,1000,1000,1000,1000,1000,1000,1000]","9600","0","test","2,9,7,6,3,1,5,4","8","","","","",""
"single-stim-button","46","332082","0.0-9.0-5.0","2016","2","digit-span","true","0","","18352","","","response","","","","","","18352","1000","test","2,9,7,6,3,1,5,4","8","SubmitButton","18352","2,9,7,6,3,1,8,4","forward","false"
"html-keyboard-response","47","340120","0.0-11.0","2016","2","digit-span","true","0","","8036.400000095367","<div class = centerbox><p class = block-text>Now, you will see some numbers, but this time you will enter them <strong>backward</strong>.<br><br>For example, you see <strong>“1—5”</strong>, and you will enter <strong>“5—1”</strong>.<br><br><br>Press <strong>""Enter/Return""</strong> to begin.</p></div>","13","start_reverse","","","","","","","","","","","","","","",""
"html-keyboard-response","48","341127","0.0-12.0-0.0","2016","2","digit-span","true","0","","null","<div class = centerbox><div class = center-text>2 Digits</p></div>","null","test_intro","","","","","","","","","","","","","","",""
"poldrack-multi-stim-multi-response","49","344542","0.0-12.0-1.0","2016","2","digit-span","true","0","","[-1]","","","stim","","[""<div class = centerbox><div class = digit-span-text>8</div></div>"",""<div class = centerbox><div class = digit-span-text>2</div></div>""]","[-1]","none","[1000,1000]","2400","0","test","8,2","2","","","","",""
"single-stim-button","50","349356","0.0-12.0-2.0","2016","2","digit-span","true","0","","4812","","","response","","","","","","4812","1000","test","8,2","2","SubmitButton","4812","2,8","practice","true"
"html-keyboard-response","51","359359","0.0-12.0-3.0","2016","2","digit-span","true","0","","null","<div class = centerbox><div class = center-block-text><span style=""color:green"">Correct!</span></div></div>","null","feedback","","","","","","","","","","","","","","",""
"html-keyboard-response","52","360367","0.0-12.0-4.0","2016","2","digit-span","true","0","","null","<div class = centerbox><div class = center-text>2 Digits</p></div>","null","test_intro","","","","","","","","","","","","","","",""
"poldrack-multi-stim-multi-response","53","363783","0.0-12.0-5.0","2016","2","digit-span","true","0","","[-1]","","","stim","","[""<div class = centerbox><div class = digit-span-text>5</div></div>"",""<div class = centerbox><div class = digit-span-text>6</div></div>""]","[-1]","none","[1000,1000]","2400","0","test","5,6","2","","","","",""
"single-stim-button","54","372084","0.0-12.0-6.0","2016","2","digit-span","true","0","","8300","","","response","","","","","","8300","1000","test","5,6","2","SubmitButton","8300","6,5","practice","true"
"html-keyboard-response","55","373086","0.0-13.0-0.0","2016","2","digit-span","true","0","","null","<div class = centerbox><div class = center-text>2 Digits</p></div>","null","test_intro","","","","","","","","","","","","","","",""
"poldrack-multi-stim-multi-response","56","376503","0.0-13.0-1.0","2016","2","digit-span","true","0","","[-1]","","","stim","","[""<div class = centerbox><div class = digit-span-text>2</div></div>"",""<div class = centerbox><div class = digit-span-text>5</div></div>""]","[-1]","none","[1000,1000]","2400","0","test","2,5","2","","","","",""
"single-stim-button","57","381298","0.0-13.0-2.0","2016","2","digit-span","true","0","","4793","","","response","","","","","","4793","1000","test","2,5","2","SubmitButton","4793","5,2","reverse","true"
"html-keyboard-response","58","382302","0.0-13.0-3.0","2016","2","digit-span","true","0","","null","<div class = centerbox><div class = center-text>2 Digits</p></div>","null","test_intro","","","","","","","","","","","","","","",""
"poldrack-multi-stim-multi-response","59","385719","0.0-13.0-4.0","2016","2","digit-span","true","0","","[-1]","","","stim","","[""<div class = centerbox><div class = digit-span-text>6</div></div>"",""<div class = centerbox><div class = digit-span-text>3</div></div>""]","[-1]","none","[1000,1000]","2400","0","test","6,3","2","","","","",""
"single-stim-button","60","395756","0.0-13.0-5.0","2016","2","digit-span","true","0","","10036","","","response","","","","","","10036","1000","test","6,3","2","SubmitButton","10036","3,6","reverse","true"
"html-keyboard-response","61","396759","0.0-14.0-0.0","2016","2","digit-span","true","0","","null","<div class = centerbox><div class = center-text>3 Digits</p></div>","null","test_intro","","","","","","","","","","","","","","",""
"poldrack-multi-stim-multi-response","62","401374","0.0-14.0-1.0","2016","2","digit-span","true","0","","[-1]","","","stim","","[""<div class = centerbox><div class = digit-span-text>5</div></div>"",""<div class = centerbox><div class = digit-span-text>7</div></div>"",""<div class = centerbox><div class = digit-span-text>4</div></div>""]","[-1]","none","[1000,1000,1000]","3600","0","test","5,7,4","3","","","","",""
"single-stim-button","63","410623","0.0-14.0-2.0","2016","2","digit-span","true","0","","9246","","","response","","","","","","9246","1000","test","5,7,4","3","SubmitButton","9246","4,7,5","reverse","true"
"html-keyboard-response","64","411631","0.0-14.0-3.0","2016","2","digit-span","true","0","","null","<div class = centerbox><div class = center-text>3 Digits</p></div>","null","test_intro","","","","","","","","","","","","","","",""
"poldrack-multi-stim-multi-response","65","416246","0.0-14.0-4.0","2016","2","digit-span","true","0","","[-1]","","","stim","","[""<div class = centerbox><div class = digit-span-text>2</div></div>"",""<div class = centerbox><div class = digit-span-text>5</div></div>"",""<div class = centerbox><div class = digit-span-text>9</div></div>""]","[-1]","none","[1000,1000,1000]","3600","0","test","2,5,9","3","","","","",""
"single-stim-button","66","424881","0.0-14.0-5.0","2016","2","digit-span","true","0","","8634","","","response","","","","","","8634","1000","test","2,5,9","3","SubmitButton","8634","9,5,2","reverse","true"
"html-keyboard-response","67","425886","0.0-15.0-0.0","2016","2","digit-span","true","0","","null","<div class = centerbox><div class = center-text>4 Digits</p></div>","null","test_intro","","","","","","","","","","","","","","",""
"poldrack-multi-stim-multi-response","68","431703","0.0-15.0-1.0","2016","2","digit-span","true","0","","[-1]","","","stim","","[""<div class = centerbox><div class = digit-span-text>7</div></div>"",""<div class = centerbox><div class = digit-span-text>2</div></div>"",""<div class = centerbox><div class = digit-span-text>9</div></div>"",""<div class = centerbox><div class = digit-span-text>6</div></div>""]","[-1]","none","[1000,1000,1000,1000]","4800","0","test","7,2,9,6","4","","","","",""
"single-stim-button","69","448971","0.0-15.0-2.0","2016","2","digit-span","true","0","","17263","","","response","","","","","","17263","1000","test","7,2,9,6","4","SubmitButton","17263","6,9,2,7","reverse","true"
"html-keyboard-response","70","449977","0.0-15.0-3.0","2016","2","digit-span","true","0","","null","<div class = centerbox><div class = center-text>4 Digits</p></div>","null","test_intro","","","","","","","","","","","","","","",""
"poldrack-multi-stim-multi-response","71","455791","0.0-15.0-4.0","2016","2","digit-span","true","0","","[-1]","","","stim","","[""<div class = centerbox><div class = digit-span-text>8</div></div>"",""<div class = centerbox><div class = digit-span-text>4</div></div>"",""<div class = centerbox><div class = digit-span-text>9</div></div>"",""<div class = centerbox><div class = digit-span-text>3</div></div>""]","[-1]","none","[1000,1000,1000,1000]","4800","0","test","8,4,9,3","4","","","","",""
"single-stim-button","72","468791","0.0-15.0-5.0","2016","2","digit-span","true","0","","12998","","","response","","","","","","12998","1000","test","8,4,9,3","4","SubmitButton","12998","3,9,4,8","reverse","true"
"html-keyboard-response","73","469801","0.0-16.0-0.0","2016","2","digit-span","true","0","","null","<div class = centerbox><div class = center-text>5 Digits</p></div>","null","test_intro","","","","","","","","","","","","","","",""
"poldrack-multi-stim-multi-response","74","476816","0.0-16.0-1.0","2016","2","digit-span","true","0","","[-1]","","","stim","","[""<div class = centerbox><div class = digit-span-text>4</div></div>"",""<div class = centerbox><div class = digit-span-text>1</div></div>"",""<div class = centerbox><div class = digit-span-text>3</div></div>"",""<div class = centerbox><div class = digit-span-text>5</div></div>"",""<div class = centerbox><div class = digit-span-text>7</div></div>""]","[-1]","none","[1000,1000,1000,1000,1000]","6000","0","test","4,1,3,5,7","5","","","","",""
"single-stim-button","75","496142","0.0-16.0-2.0","2016","2","digit-span","true","0","","19324","","","response","","","","","","19324","1000","test","4,1,3,5,7","5","SubmitButton","19324","7,5,3,1,4","reverse","true"
"html-keyboard-response","76","497151","0.0-16.0-3.0","2016","2","digit-span","true","0","","null","<div class = centerbox><div class = center-text>5 Digits</p></div>","null","test_intro","","","","","","","","","","","","","","",""
"poldrack-multi-stim-multi-response","77","504166","0.0-16.0-4.0","2016","2","digit-span","true","0","","[-1]","","","stim","","[""<div class = centerbox><div class = digit-span-text>9</div></div>"",""<div class = centerbox><div class = digit-span-text>7</div></div>"",""<div class = centerbox><div class = digit-span-text>8</div></div>"",""<div class = centerbox><div class = digit-span-text>5</div></div>"",""<div class = centerbox><div class = digit-span-text>2</div></div>""]","[-1]","none","[1000,1000,1000,1000,1000]","6000","0","test","9,7,8,5,2","5","","","","",""
"single-stim-button","78","520380","0.0-16.0-5.0","2016","2","digit-span","true","0","","16213","","","response","","","","","","16213","1000","test","9,7,8,5,2","5","SubmitButton","16213","2,5,8,7,9","reverse","true"
"html-keyboard-response","79","521382","0.0-17.0-0.0","2016","2","digit-span","true","0","","null","<div class = centerbox><div class = center-text>6 Digits</p></div>","null","test_intro","","","","","","","","","","","","","","",""
"poldrack-multi-stim-multi-response","80","529599","0.0-17.0-1.0","2016","2","digit-span","true","0","","[-1]","","","stim","","[""<div class = centerbox><div class = digit-span-text>1</div></div>"",""<div class = centerbox><div class = digit-span-text>6</div></div>"",""<div class = centerbox><div class = digit-span-text>5</div></div>"",""<div class = centerbox><div class = digit-span-text>2</div></div>"",""<div class = centerbox><div class = digit-span-text>9</div></div>"",""<div class = centerbox><div class = digit-span-text>8</div></div>""]","[-1]","none","[1000,1000,1000,1000,1000,1000]","7200","0","test","1,6,5,2,9,8","6","","","","",""
"single-stim-button","81","557625","0.0-17.0-2.0","2016","2","digit-span","true","0","","28024","","","response","","","","","","28024","1000","test","1,6,5,2,9,8","6","SubmitButton","28024","8,9,6,2,5,1","reverse","false"
"html-keyboard-response","82","558630","0.0-17.0-3.0","2016","2","digit-span","true","0","","null","<div class = centerbox><div class = center-text>6 Digits</p></div>","null","test_intro","","","","","","","","","","","","","","",""
"poldrack-multi-stim-multi-response","83","566847","0.0-17.0-4.0","2016","2","digit-span","true","0","","[-1]","","","stim","","[""<div class = centerbox><div class = digit-span-text>3</div></div>"",""<div class = centerbox><div class = digit-span-text>6</div></div>"",""<div class = centerbox><div class = digit-span-text>7</div></div>"",""<div class = centerbox><div class = digit-span-text>1</div></div>"",""<div class = centerbox><div class = digit-span-text>9</div></div>"",""<div class = centerbox><div class = digit-span-text>4</div></div>""]","[-1]","none","[1000,1000,1000,1000,1000,1000]","7200","0","test","3,6,7,1,9,4","6","","","","",""
"single-stim-button","84","584328","0.0-17.0-5.0","2016","2","digit-span","true","0","","17479","","","response","","","","","","17479","1000","test","3,6,7,1,9,4","6","SubmitButton","17479","4,9,1,7,6,3","reverse","true"
"html-keyboard-response","85","585334","0.0-18.0-0.0","2016","2","digit-span","true","0","","null","<div class = centerbox><div class = center-text>7 Digits</p></div>","null","test_intro","","","","","","","","","","","","","","",""
"poldrack-multi-stim-multi-response","86","594751","0.0-18.0-1.0","2016","2","digit-span","true","0","","[-1]","","","stim","","[""<div class = centerbox><div class = digit-span-text>8</div></div>"",""<div class = centerbox><div class = digit-span-text>5</div></div>"",""<div class = centerbox><div class = digit-span-text>9</div></div>"",""<div class = centerbox><div class = digit-span-text>2</div></div>"",""<div class = centerbox><div class = digit-span-text>3</div></div>"",""<div class = centerbox><div class = digit-span-text>4</div></div>"",""<div class = centerbox><div class = digit-span-text>2</div></div>""]","[-1]","none","[1000,1000,1000,1000,1000,1000,1000]","8400","0","test","8,5,9,2,3,4,2","7","","","","",""
"single-stim-button","87","644146","0.0-18.0-2.0","2016","2","digit-span","true","0","","49393","","","response","","","","","","49393","1000","test","8,5,9,2,3,4,2","7","SubmitButton","49393","2,3,2,4,5,9,8","reverse","false"
"html-keyboard-response","88","645151","0.0-18.0-3.0","2016","2","digit-span","true","0","","null","<div class = centerbox><div class = center-text>7 Digits</p></div>","null","test_intro","","","","","","","","","","","","","","",""
"poldrack-multi-stim-multi-response","89","654566","0.0-18.0-4.0","2016","2","digit-span","true","0","","[-1]","","","stim","","[""<div class = centerbox><div class = digit-span-text>4</div></div>"",""<div class = centerbox><div class = digit-span-text>5</div></div>"",""<div class = centerbox><div class = digit-span-text>7</div></div>"",""<div class = centerbox><div class = digit-span-text>9</div></div>"",""<div class = centerbox><div class = digit-span-text>2</div></div>"",""<div class = centerbox><div class = digit-span-text>8</div></div>"",""<div class = centerbox><div class = digit-span-text>1</div></div>""]","[-1]","none","[1000,1000,1000,1000,1000,1000,1000]","8400","0","test","4,5,7,9,2,8,1","7","","","","",""
"single-stim-button","90","737084","0.0-18.0-5.0","2016","2","digit-span","true","0","","82515","","","response","","","","","","82515","1000","test","4,5,7,9,2,8,1","7","SubmitButton","82515","1,2,8,9,7,5,4","reverse","false"
"image-keyboard-response","91","740516","0.0-20.0","2016","2","digit-span","true","0","","3429.5","img/trophy2.jpeg","13","end","","","","","","","","","","","","","","",""
