"trial_type","trial_index","time_elapsed","internal_node_id","subject","order","exp_id","full_screen","focus_shifts","success","rt","stimulus","key_press","trial_id","view_history","stimuli","key_presses","possible_responses","stim_durations","block_duration","timing_post_trial","exp_stage","sequence","num_digits","mouse_click","stim_duration","response","condition","correct"
"pavlovia","0","3095","0.0-0.0","2065","1","digit-span","false","0","","","","","","","","","","","","","","","","","","","",""
"fullscreen","1","7771","0.0-1.0","2065","1","digit-span","true","0","true","","","","","","","","","","","","","","","","","","",""
"html-keyboard-response","2","13467","0.0-2.0-0.0","2065","1","digit-span","true","0","","5692","<div class = centerbox><p class = center-block-text>Welcome to the number game! It will take less than 5 minutes. Press <strong>""Enter/Return""</strong> to begin.</p></div>","13","instruction","","","","","","","","","","","","","","",""
"instructions","3","34186","0.0-2.0-1.0","2065","1","digit-span","true","0","","20719","","","instruction","[{""page_index"":0,""viewing_time"":20719}]","","","","","","","","","","","","","",""
"instructions","4","40468","0.0-2.0-2.0","2065","1","digit-span","true","0","","5271","","","instruction","[{""page_index"":0,""viewing_time"":5271}]","","","","","","","","","","","","","",""
"html-keyboard-response","5","42498","0.0-3.0-0.0","2065","1","digit-span","true","0","","null","<div class = centerbox><div class = center-text>2 Digits</p></div>","null","test_intro","","","","","","","","","","","","","","",""
"poldrack-multi-stim-multi-response","6","45913","0.0-3.0-1.0","2065","1","digit-span","true","0","","[-1]","","","stim","","[""<div class = centerbox><div class = digit-span-text>2</div></div>"",""<div class = centerbox><div class = digit-span-text>9</div></div>""]","[-1]","none","[1000,1000]","2400","0","test","2,9","2","","","","",""
"single-stim-button","7","53504","0.0-3.0-2.0","2065","1","digit-span","true","0","","7589","","","response","","","","","","7589","1000","test","2,9","2","SubmitButton","7589","2,9","forward","true"
"html-keyboard-response","8","54507","0.0-3.0-3.0","2065","1","digit-span","true","0","","null","<div class = centerbox><div class = center-text>2 Digits</p></div>","null","test_intro","","","","","","","","","","","","","","",""
"poldrack-multi-stim-multi-response","9","57927","0.0-3.0-4.0","2065","1","digit-span","true","0","","[-1]","","","stim","","[""<div class = centerbox><div class = digit-span-text>4</div></div>"",""<div class = centerbox><div class = digit-span-text>6</div></div>""]","[-1]","none","[1000,1000]","2400","0","test","4,6","2","","","","",""
"single-stim-button","10","61486","0.0-3.0-5.0","2065","1","digit-span","true","0","","3559","","","response","","","","","","3559","1000","test","4,6","2","SubmitButton","3559","4,6","forward","true"
"html-keyboard-response","11","62491","0.0-4.0-0.0","2065","1","digit-span","true","0","","null","<div class = centerbox><div class = center-text>3 Digits</p></div>","null","test_intro","","","","","","","","","","","","","","",""
"poldrack-multi-stim-multi-response","12","67104","0.0-4.0-1.0","2065","1","digit-span","true","0","","[-1]","","","stim","","[""<div class = centerbox><div class = digit-span-text>3</div></div>"",""<div class = centerbox><div class = digit-span-text>8</div></div>"",""<div class = centerbox><div class = digit-span-text>6</div></div>""]","[-1]","none","[1000,1000,1000]","3600","0","test","3,8,6","3","","","","",""
"single-stim-button","13","71267","0.0-4.0-2.0","2065","1","digit-span","true","0","","4158","","","response","","","","","","4158","1000","test","3,8,6","3","SubmitButton","4158","3,8,6","forward","true"
"html-keyboard-response","14","72284","0.0-4.0-3.0","2065","1","digit-span","true","0","","null","<div class = centerbox><div class = center-text>3 Digits</p></div>","null","test_intro","","","","","","","","","","","","","","",""
"poldrack-multi-stim-multi-response","15","76906","0.0-4.0-4.0","2065","1","digit-span","true","0","","[-1]","","","stim","","[""<div class = centerbox><div class = digit-span-text>6</div></div>"",""<div class = centerbox><div class = digit-span-text>1</div></div>"",""<div class = centerbox><div class = digit-span-text>2</div></div>""]","[-1]","none","[1000,1000,1000]","3600","0","test","6,1,2","3","","","","",""
"single-stim-button","16","89047","0.0-4.0-5.0","2065","1","digit-span","true","0","","12140","","","response","","","","","","12140","1000","test","6,1,2","3","SubmitButton","12140","6,1,2","forward","true"
"html-keyboard-response","17","90053","0.0-5.0-0.0","2065","1","digit-span","true","0","","null","<div class = centerbox><div class = center-text>4 Digits</p></div>","null","test_intro","","","","","","","","","","","","","","",""
"poldrack-multi-stim-multi-response","18","95873","0.0-5.0-1.0","2065","1","digit-span","true","0","","[-1]","","","stim","","[""<div class = centerbox><div class = digit-span-text>3</div></div>"",""<div class = centerbox><div class = digit-span-text>4</div></div>"",""<div class = centerbox><div class = digit-span-text>1</div></div>"",""<div class = centerbox><div class = digit-span-text>7</div></div>""]","[-1]","none","[1000,1000,1000,1000]","4800","0","test","3,4,1,7","4","","","","",""
"single-stim-button","19","100455","0.0-5.0-2.0","2065","1","digit-span","true","0","","4580","","","response","","","","","","4580","1000","test","3,4,1,7","4","SubmitButton","4580","3,4,1,7","forward","true"
"html-keyboard-response","20","101457","0.0-5.0-3.0","2065","1","digit-span","true","0","","null","<div class = centerbox><div class = center-text>4 Digits</p></div>","null","test_intro","","","","","","","","","","","","","","",""
"poldrack-multi-stim-multi-response","21","107268","0.0-5.0-4.0","2065","1","digit-span","true","0","","[-1]","","","stim","","[""<div class = centerbox><div class = digit-span-text>6</div></div>"",""<div class = centerbox><div class = digit-span-text>1</div></div>"",""<div class = centerbox><div class = digit-span-text>5</div></div>"",""<div class = centerbox><div class = digit-span-text>8</div></div>""]","[-1]","none","[1000,1000,1000,1000]","4800","0","test","6,1,5,8","4","","","","",""
"single-stim-button","22","117272","0.0-5.0-5.0","2065","1","digit-span","true","0","","10003","","","response","","","","","","10003","1000","test","6,1,5,8","4","SubmitButton","10003","6,1,5,8","forward","true"
"html-keyboard-response","23","118275","0.0-6.0-0.0","2065","1","digit-span","true","0","","null","<div class = centerbox><div class = center-text>5 Digits</p></div>","null","test_intro","","","","","","","","","","","","","","",""
"poldrack-multi-stim-multi-response","24","125292","0.0-6.0-1.0","2065","1","digit-span","true","0","","[-1]","","","stim","","[""<div class = centerbox><div class = digit-span-text>8</div></div>"",""<div class = centerbox><div class = digit-span-text>4</div></div>"",""<div class = centerbox><div class = digit-span-text>2</div></div>"",""<div class = centerbox><div class = digit-span-text>3</div></div>"",""<div class = centerbox><div class = digit-span-text>9</div></div>""]","[-1]","none","[1000,1000,1000,1000,1000]","6000","0","test","8,4,2,3,9","5","","","","",""
"single-stim-button","25","130832","0.0-6.0-2.0","2065","1","digit-span","true","0","","5540","","","response","","","","","","5540","1000","test","8,4,2,3,9","5","SubmitButton","5540","8,4,2,3,9","forward","true"
"html-keyboard-response","26","131846","0.0-6.0-3.0","2065","1","digit-span","true","0","","null","<div class = centerbox><div class = center-text>5 Digits</p></div>","null","test_intro","","","","","","","","","","","","","","",""
"poldrack-multi-stim-multi-response","27","138870","0.0-6.0-4.0","2065","1","digit-span","true","0","","[-1]","","","stim","","[""<div class = centerbox><div class = digit-span-text>5</div></div>"",""<div class = centerbox><div class = digit-span-text>2</div></div>"",""<div class = centerbox><div class = digit-span-text>1</div></div>"",""<div class = centerbox><div class = digit-span-text>8</div></div>"",""<div class = centerbox><div class = digit-span-text>6</div></div>""]","[-1]","none","[1000,1000,1000,1000,1000]","6000","0","test","5,2,1,8,6","5","","","","",""
"single-stim-button","28","145581","0.0-6.0-5.0","2065","1","digit-span","true","0","","6710","","","response","","","","","","6710","1000","test","5,2,1,8,6","5","SubmitButton","6710","5,2,1,8,6","forward","true"
"html-keyboard-response","29","146598","0.0-7.0-0.0","2065","1","digit-span","true","0","","null","<div class = centerbox><div class = center-text>6 Digits</p></div>","null","test_intro","","","","","","","","","","","","","","",""
"poldrack-multi-stim-multi-response","30","154815","0.0-7.0-1.0","2065","1","digit-span","true","0","","[-1]","","","stim","","[""<div class = centerbox><div class = digit-span-text>3</div></div>"",""<div class = centerbox><div class = digit-span-text>8</div></div>"",""<div class = centerbox><div class = digit-span-text>9</div></div>"",""<div class = centerbox><div class = digit-span-text>1</div></div>"",""<div class = centerbox><div class = digit-span-text>7</div></div>"",""<div class = centerbox><div class = digit-span-text>4</div></div>""]","[-1]","none","[1000,1000,1000,1000,1000,1000]","7200","0","test","3,8,9,1,7,4","6","","","","",""
"single-stim-button","31","162582","0.0-7.0-2.0","2065","1","digit-span","true","0","","7766","","","response","","","","","","7766","1000","test","3,8,9,1,7,4","6","SubmitButton","7766","3,8,9,1,7,4","forward","true"
"html-keyboard-response","32","163596","0.0-7.0-3.0","2065","1","digit-span","true","0","","null","<div class = centerbox><div class = center-text>6 Digits</p></div>","null","test_intro","","","","","","","","","","","","","","",""
"poldrack-multi-stim-multi-response","33","171812","0.0-7.0-4.0","2065","1","digit-span","true","0","","[-1]","","","stim","","[""<div class = centerbox><div class = digit-span-text>7</div></div>"",""<div class = centerbox><div class = digit-span-text>9</div></div>"",""<div class = centerbox><div class = digit-span-text>6</div></div>"",""<div class = centerbox><div class = digit-span-text>4</div></div>"",""<div class = centerbox><div class = digit-span-text>8</div></div>"",""<div class = centerbox><div class = digit-span-text>3</div></div>""]","[-1]","none","[1000,1000,1000,1000,1000,1000]","7200","0","test","7,9,6,4,8,3","6","","","","",""
"single-stim-button","34","179637","0.0-7.0-5.0","2065","1","digit-span","true","0","","7824","","","response","","","","","","7824","1000","test","7,9,6,4,8,3","6","SubmitButton","7824","7,9,6,4,8,3","forward","true"
"html-keyboard-response","35","180641","0.0-8.0-0.0","2065","1","digit-span","true","0","","null","<div class = centerbox><div class = center-text>7 Digits</p></div>","null","test_intro","","","","","","","","","","","","","","",""
"poldrack-multi-stim-multi-response","36","190072","0.0-8.0-1.0","2065","1","digit-span","true","0","","[-1]","","","stim","","[""<div class = centerbox><div class = digit-span-text>5</div></div>"",""<div class = centerbox><div class = digit-span-text>1</div></div>"",""<div class = centerbox><div class = digit-span-text>7</div></div>"",""<div class = centerbox><div class = digit-span-text>4</div></div>"",""<div class = centerbox><div class = digit-span-text>2</div></div>"",""<div class = centerbox><div class = digit-span-text>3</div></div>"",""<div class = centerbox><div class = digit-span-text>8</div></div>""]","[-1]","none","[1000,1000,1000,1000,1000,1000,1000]","8400","0","test","5,1,7,4,2,3,8","7","","","","",""
"single-stim-button","37","198004","0.0-8.0-2.0","2065","1","digit-span","true","0","","7930","","","response","","","","","","7930","1000","test","5,1,7,4,2,3,8","7","SubmitButton","7930","5,1,7,4,2,3,8","forward","true"
"html-keyboard-response","38","199013","0.0-8.0-3.0","2065","1","digit-span","true","0","","null","<div class = centerbox><div class = center-text>7 Digits</p></div>","null","test_intro","","","","","","","","","","","","","","",""
"poldrack-multi-stim-multi-response","39","208434","0.0-8.0-4.0","2065","1","digit-span","true","0","","[-1]","","","stim","","[""<div class = centerbox><div class = digit-span-text>9</div></div>"",""<div class = centerbox><div class = digit-span-text>8</div></div>"",""<div class = centerbox><div class = digit-span-text>5</div></div>"",""<div class = centerbox><div class = digit-span-text>2</div></div>"",""<div class = centerbox><div class = digit-span-text>1</div></div>"",""<div class = centerbox><div class = digit-span-text>6</div></div>"",""<div class = centerbox><div class = digit-span-text>3</div></div>""]","[-1]","none","[1000,1000,1000,1000,1000,1000,1000]","8400","0","test","9,8,5,2,1,6,3","7","","","","",""
"single-stim-button","40","222357","0.0-8.0-5.0","2065","1","digit-span","true","0","","13922","","","response","","","","","","13922","1000","test","9,8,5,2,1,6,3","7","SubmitButton","13922","9,8,5,2,1,6,3","forward","true"
"html-keyboard-response","41","223360","0.0-9.0-0.0","2065","1","digit-span","true","0","","null","<div class = centerbox><div class = center-text>8 Digits</p></div>","null","test_intro","","","","","","","","","","","","","","",""
"poldrack-multi-stim-multi-response","42","233989","0.0-9.0-1.0","2065","1","digit-span","true","0","","[-1]","","","stim","","[""<div class = centerbox><div class = digit-span-text>1</div></div>"",""<div class = centerbox><div class = digit-span-text>6</div></div>"",""<div class = centerbox><div class = digit-span-text>4</div></div>"",""<div class = centerbox><div class = digit-span-text>5</div></div>"",""<div class = centerbox><div class = digit-span-text>9</div></div>"",""<div class = centerbox><div class = digit-span-text>7</div></div>"",""<div class = centerbox><div class = digit-span-text>6</div></div>"",""<div class = centerbox><div class = digit-span-text>3</div></div>""]","[-1]","none","[1000,1000,1000,1000,1000,1000,1000,1000]","9600","0","test","1,6,4,5,9,7,6,3","8","","","","",""
"single-stim-button","43","242658","0.0-9.0-2.0","2065","1","digit-span","true","0","","8668","","","response","","","","","","8668","1000","test","1,6,4,5,9,7,6,3","8","SubmitButton","8668","1,6,4,5,9,7,6,3","forward","true"
"html-keyboard-response","44","243665","0.0-9.0-3.0","2065","1","digit-span","true","0","","null","<div class = centerbox><div class = center-text>8 Digits</p></div>","null","test_intro","","","","","","","","","","","","","","",""
"poldrack-multi-stim-multi-response","45","254279","0.0-9.0-4.0","2065","1","digit-span","true","0","","[-1]","","","stim","","[""<div class = centerbox><div class = digit-span-text>2</div></div>"",""<div class = centerbox><div class = digit-span-text>9</div></div>"",""<div class = centerbox><div class = digit-span-text>7</div></div>"",""<div class = centerbox><div class = digit-span-text>6</div></div>"",""<div class = centerbox><div class = digit-span-text>3</div></div>"",""<div class = centerbox><div class = digit-span-text>1</div></div>"",""<div class = centerbox><div class = digit-span-text>5</div></div>"",""<div class = centerbox><div class = digit-span-text>4</div></div>""]","[-1]","none","[1000,1000,1000,1000,1000,1000,1000,1000]","9600","0","test","2,9,7,6,3,1,5,4","8","","","","",""
"single-stim-button","46","280660","0.0-9.0-5.0","2065","1","digit-span","true","0","","26379","","","response","","","","","","26379","1000","test","2,9,7,6,3,1,5,4","8","SubmitButton","26379","3,9,7,6,2,5,1,4","forward","false"
"html-keyboard-response","47","281667","0.0-10.0-0.0","2065","1","digit-span","true","0","","null","<div class = centerbox><div class = center-text>9 Digits</p></div>","null","test_intro","","","","","","","","","","","","","","",""
"poldrack-multi-stim-multi-response","48","293490","0.0-10.0-1.0","2065","1","digit-span","true","0","","[-1]","","","stim","","[""<div class = centerbox><div class = digit-span-text>5</div></div>"",""<div class = centerbox><div class = digit-span-text>3</div></div>"",""<div class = centerbox><div class = digit-span-text>8</div></div>"",""<div class = centerbox><div class = digit-span-text>7</div></div>"",""<div class = centerbox><div class = digit-span-text>1</div></div>"",""<div class = centerbox><div class = digit-span-text>2</div></div>"",""<div class = centerbox><div class = digit-span-text>4</div></div>"",""<div class = centerbox><div class = digit-span-text>6</div></div>"",""<div class = centerbox><div class = digit-span-text>9</div></div>""]","[-1]","none","[1000,1000,1000,1000,1000,1000,1000,1000,1000]","10800","0","test","5,3,8,7,1,2,4,6,9","9","","","","",""
"single-stim-button","49","307177","0.0-10.0-2.0","2065","1","digit-span","true","0","","13686","","","response","","","","","","13686","1000","test","5,3,8,7,1,2,4,6,9","9","SubmitButton","13686","5,3,8,7,1,2,4,6,9","forward","true"
"html-keyboard-response","50","308184","0.0-10.0-3.0","2065","1","digit-span","true","0","","null","<div class = centerbox><div class = center-text>9 Digits</p></div>","null","test_intro","","","","","","","","","","","","","","",""
"poldrack-multi-stim-multi-response","51","320006","0.0-10.0-4.0","2065","1","digit-span","true","0","","[-1]","","","stim","","[""<div class = centerbox><div class = digit-span-text>4</div></div>"",""<div class = centerbox><div class = digit-span-text>2</div></div>"",""<div class = centerbox><div class = digit-span-text>6</div></div>"",""<div class = centerbox><div class = digit-span-text>9</div></div>"",""<div class = centerbox><div class = digit-span-text>1</div></div>"",""<div class = centerbox><div class = digit-span-text>7</div></div>"",""<div class = centerbox><div class = digit-span-text>8</div></div>"",""<div class = centerbox><div class = digit-span-text>3</div></div>"",""<div class = centerbox><div class = digit-span-text>5</div></div>""]","[-1]","none","[1000,1000,1000,1000,1000,1000,1000,1000,1000]","10800","0","test","4,2,6,9,1,7,8,3,5","9","","","","",""
"single-stim-button","52","330755","0.0-10.0-5.0","2065","1","digit-span","true","0","","10749","","","response","","","","","","10749","1000","test","4,2,6,9,1,7,8,3,5","9","SubmitButton","10749","4,2,6,9,1,7,8,3,4","forward","false"
"html-keyboard-response","53","334929","0.0-11.0","2065","1","digit-span","true","0","","4172","<div class = centerbox><p class = block-text>Now, you will see some numbers, but this time you will enter them <strong>backward</strong>.<br><br>For example, you see <strong>“1—5”</strong>, and you will enter <strong>“5—1”</strong>.<br><br><br>Press <strong>""Enter/Return""</strong> to begin.</p></div>","13","start_reverse","","","","","","","","","","","","","","",""
"html-keyboard-response","54","335936","0.0-12.0-0.0","2065","1","digit-span","true","0","","null","<div class = centerbox><div class = center-text>2 Digits</p></div>","null","test_intro","","","","","","","","","","","","","","",""
"poldrack-multi-stim-multi-response","55","339352","0.0-12.0-1.0","2065","1","digit-span","true","0","","[-1]","","","stim","","[""<div class = centerbox><div class = digit-span-text>8</div></div>"",""<div class = centerbox><div class = digit-span-text>2</div></div>""]","[-1]","none","[1000,1000]","2400","0","test","8,2","2","","","","",""
"single-stim-button","56","342791","0.0-12.0-2.0","2065","1","digit-span","true","0","","3438","","","response","","","","","","3438","1000","test","8,2","2","SubmitButton","3438","2,8","practice","true"
"html-keyboard-response","57","352801","0.0-12.0-3.0","2065","1","digit-span","true","0","","null","<div class = centerbox><div class = center-block-text><span style=""color:green"">Correct!</span></div></div>","null","feedback","","","","","","","","","","","","","","",""
"html-keyboard-response","58","353806","0.0-12.0-4.0","2065","1","digit-span","true","0","","null","<div class = centerbox><div class = center-text>2 Digits</p></div>","null","test_intro","","","","","","","","","","","","","","",""
"poldrack-multi-stim-multi-response","59","357219","0.0-12.0-5.0","2065","1","digit-span","true","0","","[-1]","","","stim","","[""<div class = centerbox><div class = digit-span-text>5</div></div>"",""<div class = centerbox><div class = digit-span-text>6</div></div>""]","[-1]","none","[1000,1000]","2400","0","test","5,6","2","","","","",""
"single-stim-button","60","359586","0.0-12.0-6.0","2065","1","digit-span","true","0","","2366","","","response","","","","","","2366","1000","test","5,6","2","SubmitButton","2366","6,5","practice","true"
"html-keyboard-response","61","360592","0.0-13.0-0.0","2065","1","digit-span","true","0","","null","<div class = centerbox><div class = center-text>2 Digits</p></div>","null","test_intro","","","","","","","","","","","","","","",""
"poldrack-multi-stim-multi-response","62","364007","0.0-13.0-1.0","2065","1","digit-span","true","0","","[-1]","","","stim","","[""<div class = centerbox><div class = digit-span-text>2</div></div>"",""<div class = centerbox><div class = digit-span-text>5</div></div>""]","[-1]","none","[1000,1000]","2400","0","test","2,5","2","","","","",""
"single-stim-button","63","368466","0.0-13.0-2.0","2065","1","digit-span","true","0","","4457","","","response","","","","","","4457","1000","test","2,5","2","SubmitButton","4457","5,2","reverse","true"
"html-keyboard-response","64","369478","0.0-13.0-3.0","2065","1","digit-span","true","0","","null","<div class = centerbox><div class = center-text>2 Digits</p></div>","null","test_intro","","","","","","","","","","","","","","",""
"poldrack-multi-stim-multi-response","65","372911","0.0-13.0-4.0","2065","1","digit-span","true","0","","[-1]","","","stim","","[""<div class = centerbox><div class = digit-span-text>6</div></div>"",""<div class = centerbox><div class = digit-span-text>3</div></div>""]","[-1]","none","[1000,1000]","2400","0","test","6,3","2","","","","",""
"single-stim-button","66","376791","0.0-13.0-5.0","2065","1","digit-span","true","0","","3879","","","response","","","","","","3879","1000","test","6,3","2","SubmitButton","3879","3,6","reverse","true"
"html-keyboard-response","67","377806","0.0-14.0-0.0","2065","1","digit-span","true","0","","null","<div class = centerbox><div class = center-text>3 Digits</p></div>","null","test_intro","","","","","","","","","","","","","","",""
"poldrack-multi-stim-multi-response","68","382418","0.0-14.0-1.0","2065","1","digit-span","true","0","","[-1]","","","stim","","[""<div class = centerbox><div class = digit-span-text>5</div></div>"",""<div class = centerbox><div class = digit-span-text>7</div></div>"",""<div class = centerbox><div class = digit-span-text>4</div></div>""]","[-1]","none","[1000,1000,1000]","3600","0","test","5,7,4","3","","","","",""
"single-stim-button","69","397840","0.0-14.0-2.0","2065","1","digit-span","true","0","","15421","","","response","","","","","","15421","1000","test","5,7,4","3","SubmitButton","15421","5,7,4","reverse","false"
"html-keyboard-response","70","398843","0.0-14.0-3.0","2065","1","digit-span","true","0","","null","<div class = centerbox><div class = center-text>3 Digits</p></div>","null","test_intro","","","","","","","","","","","","","","",""
"poldrack-multi-stim-multi-response","71","403456","0.0-14.0-4.0","2065","1","digit-span","true","0","","[-1]","","","stim","","[""<div class = centerbox><div class = digit-span-text>2</div></div>"",""<div class = centerbox><div class = digit-span-text>5</div></div>"",""<div class = centerbox><div class = digit-span-text>9</div></div>""]","[-1]","none","[1000,1000,1000]","3600","0","test","2,5,9","3","","","","",""
"single-stim-button","72","408187","0.0-14.0-5.0","2065","1","digit-span","true","0","","4729","","","response","","","","","","4729","1000","test","2,5,9","3","SubmitButton","4729","9,5,2","reverse","true"
"html-keyboard-response","73","409200","0.0-15.0-0.0","2065","1","digit-span","true","0","","null","<div class = centerbox><div class = center-text>4 Digits</p></div>","null","test_intro","","","","","","","","","","","","","","",""
"poldrack-multi-stim-multi-response","74","415021","0.0-15.0-1.0","2065","1","digit-span","true","0","","[-1]","","","stim","","[""<div class = centerbox><div class = digit-span-text>7</div></div>"",""<div class = centerbox><div class = digit-span-text>2</div></div>"",""<div class = centerbox><div class = digit-span-text>9</div></div>"",""<div class = centerbox><div class = digit-span-text>6</div></div>""]","[-1]","none","[1000,1000,1000,1000]","4800","0","test","7,2,9,6","4","","","","",""
"single-stim-button","75","422068","0.0-15.0-2.0","2065","1","digit-span","true","0","","7045","","","response","","","","","","7045","1000","test","7,2,9,6","4","SubmitButton","7045","6,9,2,7","reverse","true"
"html-keyboard-response","76","423080","0.0-15.0-3.0","2065","1","digit-span","true","0","","null","<div class = centerbox><div class = center-text>4 Digits</p></div>","null","test_intro","","","","","","","","","","","","","","",""
"poldrack-multi-stim-multi-response","77","428886","0.0-15.0-4.0","2065","1","digit-span","true","0","","[-1]","","","stim","","[""<div class = centerbox><div class = digit-span-text>8</div></div>"",""<div class = centerbox><div class = digit-span-text>4</div></div>"",""<div class = centerbox><div class = digit-span-text>9</div></div>"",""<div class = centerbox><div class = digit-span-text>3</div></div>""]","[-1]","none","[1000,1000,1000,1000]","4800","0","test","8,4,9,3","4","","","","",""
"single-stim-button","78","435087","0.0-15.0-5.0","2065","1","digit-span","true","0","","6199","","","response","","","","","","6199","1000","test","8,4,9,3","4","SubmitButton","6199","3,9,4,8","reverse","true"
"html-keyboard-response","79","436096","0.0-16.0-0.0","2065","1","digit-span","true","0","","null","<div class = centerbox><div class = center-text>5 Digits</p></div>","null","test_intro","","","","","","","","","","","","","","",""
"poldrack-multi-stim-multi-response","80","443120","0.0-16.0-1.0","2065","1","digit-span","true","0","","[-1]","","","stim","","[""<div class = centerbox><div class = digit-span-text>4</div></div>"",""<div class = centerbox><div class = digit-span-text>1</div></div>"",""<div class = centerbox><div class = digit-span-text>3</div></div>"",""<div class = centerbox><div class = digit-span-text>5</div></div>"",""<div class = centerbox><div class = digit-span-text>7</div></div>""]","[-1]","none","[1000,1000,1000,1000,1000]","6000","0","test","4,1,3,5,7","5","","","","",""
"single-stim-button","81","449773","0.0-16.0-2.0","2065","1","digit-span","true","0","","6652","","","response","","","","","","6652","1000","test","4,1,3,5,7","5","SubmitButton","6652","7,5,3,1,4","reverse","true"
"html-keyboard-response","82","450780","0.0-16.0-3.0","2065","1","digit-span","true","0","","null","<div class = centerbox><div class = center-text>5 Digits</p></div>","null","test_intro","","","","","","","","","","","","","","",""
"poldrack-multi-stim-multi-response","83","457789","0.0-16.0-4.0","2065","1","digit-span","true","0","","[-1]","","","stim","","[""<div class = centerbox><div class = digit-span-text>9</div></div>"",""<div class = centerbox><div class = digit-span-text>7</div></div>"",""<div class = centerbox><div class = digit-span-text>8</div></div>"",""<div class = centerbox><div class = digit-span-text>5</div></div>"",""<div class = centerbox><div class = digit-span-text>2</div></div>""]","[-1]","none","[1000,1000,1000,1000,1000]","6000","0","test","9,7,8,5,2","5","","","","",""
"single-stim-button","84","464689","0.0-16.0-5.0","2065","1","digit-span","true","0","","6899","","","response","","","","","","6899","1000","test","9,7,8,5,2","5","SubmitButton","6899","2,5,8,7,9","reverse","true"
"html-keyboard-response","85","465706","0.0-17.0-0.0","2065","1","digit-span","true","0","","null","<div class = centerbox><div class = center-text>6 Digits</p></div>","null","test_intro","","","","","","","","","","","","","","",""
"poldrack-multi-stim-multi-response","86","473929","0.0-17.0-1.0","2065","1","digit-span","true","0","","[-1]","","","stim","","[""<div class = centerbox><div class = digit-span-text>1</div></div>"",""<div class = centerbox><div class = digit-span-text>6</div></div>"",""<div class = centerbox><div class = digit-span-text>5</div></div>"",""<div class = centerbox><div class = digit-span-text>2</div></div>"",""<div class = centerbox><div class = digit-span-text>9</div></div>"",""<div class = centerbox><div class = digit-span-text>8</div></div>""]","[-1]","none","[1000,1000,1000,1000,1000,1000]","7200","0","test","1,6,5,2,9,8","6","","","","",""
"single-stim-button","87","514414","0.0-17.0-2.0","2065","1","digit-span","true","0","","40484","","","response","","","","","","40484","1000","test","1,6,5,2,9,8","6","SubmitButton","40484","8,9,2,5,6,1","reverse","true"
"html-keyboard-response","88","515421","0.0-17.0-3.0","2065","1","digit-span","true","0","","null","<div class = centerbox><div class = center-text>6 Digits</p></div>","null","test_intro","","","","","","","","","","","","","","",""
"poldrack-multi-stim-multi-response","89","523646","0.0-17.0-4.0","2065","1","digit-span","true","0","","[-1]","","","stim","","[""<div class = centerbox><div class = digit-span-text>3</div></div>"",""<div class = centerbox><div class = digit-span-text>6</div></div>"",""<div class = centerbox><div class = digit-span-text>7</div></div>"",""<div class = centerbox><div class = digit-span-text>1</div></div>"",""<div class = centerbox><div class = digit-span-text>9</div></div>"",""<div class = centerbox><div class = digit-span-text>4</div></div>""]","[-1]","none","[1000,1000,1000,1000,1000,1000]","7200","0","test","3,6,7,1,9,4","6","","","","",""
"single-stim-button","90","532851","0.0-17.0-5.0","2065","1","digit-span","true","0","","9204","","","response","","","","","","9204","1000","test","3,6,7,1,9,4","6","SubmitButton","9204","4,9,1,7,6,3","reverse","true"
"html-keyboard-response","91","533864","0.0-18.0-0.0","2065","1","digit-span","true","0","","null","<div class = centerbox><div class = center-text>7 Digits</p></div>","null","test_intro","","","","","","","","","","","","","","",""
"poldrack-multi-stim-multi-response","92","543280","0.0-18.0-1.0","2065","1","digit-span","true","0","","[-1]","","","stim","","[""<div class = centerbox><div class = digit-span-text>8</div></div>"",""<div class = centerbox><div class = digit-span-text>5</div></div>"",""<div class = centerbox><div class = digit-span-text>9</div></div>"",""<div class = centerbox><div class = digit-span-text>2</div></div>"",""<div class = centerbox><div class = digit-span-text>3</div></div>"",""<div class = centerbox><div class = digit-span-text>4</div></div>"",""<div class = centerbox><div class = digit-span-text>2</div></div>""]","[-1]","none","[1000,1000,1000,1000,1000,1000,1000]","8400","0","test","8,5,9,2,3,4,2","7","","","","",""
"single-stim-button","93","566635","0.0-18.0-2.0","2065","1","digit-span","true","0","","23353","","","response","","","","","","23353","1000","test","8,5,9,2,3,4,2","7","SubmitButton","23353","2,4,3,2,9,5,8","reverse","true"
"html-keyboard-response","94","567635","0.0-18.0-3.0","2065","1","digit-span","true","0","","null","<div class = centerbox><div class = center-text>7 Digits</p></div>","null","test_intro","","","","","","","","","","","","","","",""
"poldrack-multi-stim-multi-response","95","577058","0.0-18.0-4.0","2065","1","digit-span","true","0","","[-1]","","","stim","","[""<div class = centerbox><div class = digit-span-text>4</div></div>"",""<div class = centerbox><div class = digit-span-text>5</div></div>"",""<div class = centerbox><div class = digit-span-text>7</div></div>"",""<div class = centerbox><div class = digit-span-text>9</div></div>"",""<div class = centerbox><div class = digit-span-text>2</div></div>"",""<div class = centerbox><div class = digit-span-text>8</div></div>"",""<div class = centerbox><div class = digit-span-text>1</div></div>""]","[-1]","none","[1000,1000,1000,1000,1000,1000,1000]","8400","0","test","4,5,7,9,2,8,1","7","","","","",""
"single-stim-button","96","590815","0.0-18.0-5.0","2065","1","digit-span","true","0","","13755","","","response","","","","","","13755","1000","test","4,5,7,9,2,8,1","7","SubmitButton","13755","1,8,2,9,7,5,4","reverse","true"
"html-keyboard-response","97","591829","0.0-19.0-0.0","2065","1","digit-span","true","0","","null","<div class = centerbox><div class = center-text>8 Digits</p></div>","null","test_intro","","","","","","","","","","","","","","",""
"poldrack-multi-stim-multi-response","98","602443","0.0-19.0-1.0","2065","1","digit-span","true","0","","[-1]","","","stim","","[""<div class = centerbox><div class = digit-span-text>6</div></div>"",""<div class = centerbox><div class = digit-span-text>9</div></div>"",""<div class = centerbox><div class = digit-span-text>1</div></div>"",""<div class = centerbox><div class = digit-span-text>6</div></div>"",""<div class = centerbox><div class = digit-span-text>3</div></div>"",""<div class = centerbox><div class = digit-span-text>2</div></div>"",""<div class = centerbox><div class = digit-span-text>5</div></div>"",""<div class = centerbox><div class = digit-span-text>8</div></div>""]","[-1]","none","[1000,1000,1000,1000,1000,1000,1000,1000]","9600","0","test","6,9,1,6,3,2,5,8","8","","","","",""
"single-stim-button","99","623974","0.0-19.0-2.0","2065","1","digit-span","true","0","","21529","","","response","","","","","","21529","1000","test","6,9,1,6,3,2,5,8","8","SubmitButton","21529","8,5,2,3,6,1,9,6","reverse","true"
"html-keyboard-response","100","624987","0.0-19.0-3.0","2065","1","digit-span","true","0","","null","<div class = centerbox><div class = center-text>8 Digits</p></div>","null","test_intro","","","","","","","","","","","","","","",""
"poldrack-multi-stim-multi-response","101","635603","0.0-19.0-4.0","2065","1","digit-span","true","0","","[-1]","","","stim","","[""<div class = centerbox><div class = digit-span-text>3</div></div>"",""<div class = centerbox><div class = digit-span-text>1</div></div>"",""<div class = centerbox><div class = digit-span-text>7</div></div>"",""<div class = centerbox><div class = digit-span-text>9</div></div>"",""<div class = centerbox><div class = digit-span-text>5</div></div>"",""<div class = centerbox><div class = digit-span-text>4</div></div>"",""<div class = centerbox><div class = digit-span-text>8</div></div>"",""<div class = centerbox><div class = digit-span-text>2</div></div>""]","[-1]","none","[1000,1000,1000,1000,1000,1000,1000,1000]","9600","0","test","3,1,7,9,5,4,8,2","8","","","","",""
"single-stim-button","102","662276","0.0-19.0-5.0","2065","1","digit-span","true","0","","26671","","","response","","","","","","26671","1000","test","3,1,7,9,5,4,8,2","8","SubmitButton","26671","4,3,2,8,9,7,5,3","reverse","false"
"image-keyboard-response","103","665659","0.0-20.0","2065","1","digit-span","true","0","","3381","img/trophy2.jpeg","13","end","","","","","","","","","","","","","","",""
