"trial_type","trial_index","time_elapsed","internal_node_id","subject","exp_id","full_screen","focus_shifts","success","rt","stimulus","key_press","trial_id","view_history","stimuli","key_presses","possible_responses","stim_durations","block_duration","timing_post_trial","exp_stage","sequence","num_digits","mouse_click","stim_duration","response","condition","correct"
"pavlovia","0","1868","0.0-0.0","1074","digit-span","true","0","","","","","","","","","","","","","","","","","","","",""
"fullscreen","1","5644","0.0-1.0","1074","digit-span","true","0","true","","","","","","","","","","","","","","","","","","",""
"html-keyboard-response","2","18571","0.0-2.0-0.0","1074","digit-span","true","0","","12926.5","<div class = centerbox><p class = center-block-text>Welcome to the number game! It will take less than 5 minutes. Press <strong>""Enter/Return""</strong> to begin.</p></div>","13","instruction","","","","","","","","","","","","","","",""
"instructions","3","24960","0.0-2.0-1.0","1074","digit-span","true","0","","6388.099999964237","","","instruction","[{""page_index"":0,""viewing_time"":6388}]","","","","","","","","","","","","","",""
"instructions","4","27202","0.0-2.0-2.0","1074","digit-span","true","0","","1241.1000000238419","","","instruction","[{""page_index"":0,""viewing_time"":1240.9000000357628}]","","","","","","","","","","","","","",""
"html-keyboard-response","5","29207","0.0-3.0-0.0","1074","digit-span","true","0","","null","<div class = centerbox><div class = center-text>2 Digits</p></div>","null","test_intro","","","","","","","","","","","","","","",""
"poldrack-multi-stim-multi-response","6","32611","0.0-3.0-1.0","1074","digit-span","true","0","","[-1]","","","stim","","[""<div class = centerbox><div class = digit-span-text>2</div></div>"",""<div class = centerbox><div class = digit-span-text>9</div></div>""]","[-1]","none","[1000,1000]","2400","0","test","2,9","2","","","","",""
"single-stim-button","7","35175","0.0-3.0-2.0","1074","digit-span","true","0","","2562","","","response","","","","","","2562","1000","test","2,9","2","SubmitButton","2562","2,9","forward","true"
"html-keyboard-response","8","36177","0.0-3.0-3.0","1074","digit-span","true","0","","null","<div class = centerbox><div class = center-text>2 Digits</p></div>","null","test_intro","","","","","","","","","","","","","","",""
"poldrack-multi-stim-multi-response","9","39580","0.0-3.0-4.0","1074","digit-span","true","0","","[-1]","","","stim","","[""<div class = centerbox><div class = digit-span-text>4</div></div>"",""<div class = centerbox><div class = digit-span-text>6</div></div>""]","[-1]","none","[1000,1000]","2400","0","test","4,6","2","","","","",""
"single-stim-button","10","42817","0.0-3.0-5.0","1074","digit-span","true","0","","3236","","","response","","","","","","3236","1000","test","4,6","2","SubmitButton","3236","4,6","forward","true"
"html-keyboard-response","11","43819","0.0-4.0-0.0","1074","digit-span","true","0","","null","<div class = centerbox><div class = center-text>3 Digits</p></div>","null","test_intro","","","","","","","","","","","","","","",""
"poldrack-multi-stim-multi-response","12","48422","0.0-4.0-1.0","1074","digit-span","true","0","","[-1]","","","stim","","[""<div class = centerbox><div class = digit-span-text>3</div></div>"",""<div class = centerbox><div class = digit-span-text>8</div></div>"",""<div class = centerbox><div class = digit-span-text>6</div></div>""]","[-1]","none","[1000,1000,1000]","3600","0","test","3,8,6","3","","","","",""
"single-stim-button","13","52507","0.0-4.0-2.0","1074","digit-span","true","0","","4085","","","response","","","","","","4085","1000","test","3,8,6","3","SubmitButton","4085","3,8,6","forward","true"
"html-keyboard-response","14","53508","0.0-4.0-3.0","1074","digit-span","true","0","","null","<div class = centerbox><div class = center-text>3 Digits</p></div>","null","test_intro","","","","","","","","","","","","","","",""
"poldrack-multi-stim-multi-response","15","58111","0.0-4.0-4.0","1074","digit-span","true","0","","[-1]","","","stim","","[""<div class = centerbox><div class = digit-span-text>6</div></div>"",""<div class = centerbox><div class = digit-span-text>1</div></div>"",""<div class = centerbox><div class = digit-span-text>2</div></div>""]","[-1]","none","[1000,1000,1000]","3600","0","test","6,1,2","3","","","","",""
"single-stim-button","16","61890","0.0-4.0-5.0","1074","digit-span","true","0","","3778","","","response","","","","","","3778","1000","test","6,1,2","3","SubmitButton","3778","6,1,2","forward","true"
"html-keyboard-response","17","62890","0.0-5.0-0.0","1074","digit-span","true","0","","null","<div class = centerbox><div class = center-text>4 Digits</p></div>","null","test_intro","","","","","","","","","","","","","","",""
"poldrack-multi-stim-multi-response","18","68693","0.0-5.0-1.0","1074","digit-span","true","0","","[-1]","","","stim","","[""<div class = centerbox><div class = digit-span-text>3</div></div>"",""<div class = centerbox><div class = digit-span-text>4</div></div>"",""<div class = centerbox><div class = digit-span-text>1</div></div>"",""<div class = centerbox><div class = digit-span-text>7</div></div>""]","[-1]","none","[1000,1000,1000,1000]","4800","0","test","3,4,1,7","4","","","","",""
"single-stim-button","19","73770","0.0-5.0-2.0","1074","digit-span","true","0","","5077","","","response","","","","","","5077","1000","test","3,4,1,7","4","SubmitButton","5077","3,4,1,7","forward","true"
"html-keyboard-response","20","74772","0.0-5.0-3.0","1074","digit-span","true","0","","null","<div class = centerbox><div class = center-text>4 Digits</p></div>","null","test_intro","","","","","","","","","","","","","","",""
"poldrack-multi-stim-multi-response","21","80574","0.0-5.0-4.0","1074","digit-span","true","0","","[-1]","","","stim","","[""<div class = centerbox><div class = digit-span-text>6</div></div>"",""<div class = centerbox><div class = digit-span-text>1</div></div>"",""<div class = centerbox><div class = digit-span-text>5</div></div>"",""<div class = centerbox><div class = digit-span-text>8</div></div>""]","[-1]","none","[1000,1000,1000,1000]","4800","0","test","6,1,5,8","4","","","","",""
"single-stim-button","22","84780","0.0-5.0-5.0","1074","digit-span","true","0","","4205","","","response","","","","","","4205","1000","test","6,1,5,8","4","SubmitButton","4205","6,1,5,8","forward","true"
"html-keyboard-response","23","85782","0.0-6.0-0.0","1074","digit-span","true","0","","null","<div class = centerbox><div class = center-text>5 Digits</p></div>","null","test_intro","","","","","","","","","","","","","","",""
"poldrack-multi-stim-multi-response","24","92784","0.0-6.0-1.0","1074","digit-span","true","0","","[-1]","","","stim","","[""<div class = centerbox><div class = digit-span-text>8</div></div>"",""<div class = centerbox><div class = digit-span-text>4</div></div>"",""<div class = centerbox><div class = digit-span-text>2</div></div>"",""<div class = centerbox><div class = digit-span-text>3</div></div>"",""<div class = centerbox><div class = digit-span-text>9</div></div>""]","[-1]","none","[1000,1000,1000,1000,1000]","6000","0","test","8,4,2,3,9","5","","","","",""
"single-stim-button","25","97844","0.0-6.0-2.0","1074","digit-span","true","0","","5060","","","response","","","","","","5060","1000","test","8,4,2,3,9","5","SubmitButton","5060","8,4,2,3,9","forward","true"
"html-keyboard-response","26","98845","0.0-6.0-3.0","1074","digit-span","true","0","","null","<div class = centerbox><div class = center-text>5 Digits</p></div>","null","test_intro","","","","","","","","","","","","","","",""
"poldrack-multi-stim-multi-response","27","105848","0.0-6.0-4.0","1074","digit-span","true","0","","[-1]","","","stim","","[""<div class = centerbox><div class = digit-span-text>5</div></div>"",""<div class = centerbox><div class = digit-span-text>2</div></div>"",""<div class = centerbox><div class = digit-span-text>1</div></div>"",""<div class = centerbox><div class = digit-span-text>8</div></div>"",""<div class = centerbox><div class = digit-span-text>6</div></div>""]","[-1]","none","[1000,1000,1000,1000,1000]","6000","0","test","5,2,1,8,6","5","","","","",""
"single-stim-button","28","110205","0.0-6.0-5.0","1074","digit-span","true","0","","4356","","","response","","","","","","4356","1000","test","5,2,1,8,6","5","SubmitButton","4356","5,2,1,8,6","forward","true"
"html-keyboard-response","29","111207","0.0-7.0-0.0","1074","digit-span","true","0","","null","<div class = centerbox><div class = center-text>6 Digits</p></div>","null","test_intro","","","","","","","","","","","","","","",""
"poldrack-multi-stim-multi-response","30","119412","0.0-7.0-1.0","1074","digit-span","true","0","","[-1]","","","stim","","[""<div class = centerbox><div class = digit-span-text>3</div></div>"",""<div class = centerbox><div class = digit-span-text>8</div></div>"",""<div class = centerbox><div class = digit-span-text>9</div></div>"",""<div class = centerbox><div class = digit-span-text>1</div></div>"",""<div class = centerbox><div class = digit-span-text>7</div></div>"",""<div class = centerbox><div class = digit-span-text>4</div></div>""]","[-1]","none","[1000,1000,1000,1000,1000,1000]","7200","0","test","3,8,9,1,7,4","6","","","","",""
"single-stim-button","31","126532","0.0-7.0-2.0","1074","digit-span","true","0","","7120","","","response","","","","","","7120","1000","test","3,8,9,1,7,4","6","SubmitButton","7120","3,8,9,1,7,4","forward","true"
"html-keyboard-response","32","127533","0.0-7.0-3.0","1074","digit-span","true","0","","null","<div class = centerbox><div class = center-text>6 Digits</p></div>","null","test_intro","","","","","","","","","","","","","","",""
"poldrack-multi-stim-multi-response","33","135735","0.0-7.0-4.0","1074","digit-span","true","0","","[-1]","","","stim","","[""<div class = centerbox><div class = digit-span-text>7</div></div>"",""<div class = centerbox><div class = digit-span-text>9</div></div>"",""<div class = centerbox><div class = digit-span-text>6</div></div>"",""<div class = centerbox><div class = digit-span-text>4</div></div>"",""<div class = centerbox><div class = digit-span-text>8</div></div>"",""<div class = centerbox><div class = digit-span-text>3</div></div>""]","[-1]","none","[1000,1000,1000,1000,1000,1000]","7200","0","test","7,9,6,4,8,3","6","","","","",""
"single-stim-button","34","142710","0.0-7.0-5.0","1074","digit-span","true","0","","6974","","","response","","","","","","6974","1000","test","7,9,6,4,8,3","6","SubmitButton","6974","7,9,6,4,8,3","forward","true"
"html-keyboard-response","35","143711","0.0-8.0-0.0","1074","digit-span","true","0","","null","<div class = centerbox><div class = center-text>7 Digits</p></div>","null","test_intro","","","","","","","","","","","","","","",""
"poldrack-multi-stim-multi-response","36","153113","0.0-8.0-1.0","1074","digit-span","true","0","","[-1]","","","stim","","[""<div class = centerbox><div class = digit-span-text>5</div></div>"",""<div class = centerbox><div class = digit-span-text>1</div></div>"",""<div class = centerbox><div class = digit-span-text>7</div></div>"",""<div class = centerbox><div class = digit-span-text>4</div></div>"",""<div class = centerbox><div class = digit-span-text>2</div></div>"",""<div class = centerbox><div class = digit-span-text>3</div></div>"",""<div class = centerbox><div class = digit-span-text>8</div></div>""]","[-1]","none","[1000,1000,1000,1000,1000,1000,1000]","8400","0","test","5,1,7,4,2,3,8","7","","","","",""
"single-stim-button","37","159323","0.0-8.0-2.0","1074","digit-span","true","0","","6209","","","response","","","","","","6209","1000","test","5,1,7,4,2,3,8","7","SubmitButton","6209","5,1,7,4,2,3,8","forward","true"
"html-keyboard-response","38","160325","0.0-8.0-3.0","1074","digit-span","true","0","","null","<div class = centerbox><div class = center-text>7 Digits</p></div>","null","test_intro","","","","","","","","","","","","","","",""
"poldrack-multi-stim-multi-response","39","169726","0.0-8.0-4.0","1074","digit-span","true","0","","[-1]","","","stim","","[""<div class = centerbox><div class = digit-span-text>9</div></div>"",""<div class = centerbox><div class = digit-span-text>8</div></div>"",""<div class = centerbox><div class = digit-span-text>5</div></div>"",""<div class = centerbox><div class = digit-span-text>2</div></div>"",""<div class = centerbox><div class = digit-span-text>1</div></div>"",""<div class = centerbox><div class = digit-span-text>6</div></div>"",""<div class = centerbox><div class = digit-span-text>3</div></div>""]","[-1]","none","[1000,1000,1000,1000,1000,1000,1000]","8400","0","test","9,8,5,2,1,6,3","7","","","","",""
"single-stim-button","40","178193","0.0-8.0-5.0","1074","digit-span","true","0","","8466","","","response","","","","","","8466","1000","test","9,8,5,2,1,6,3","7","SubmitButton","8466","9,8,5,2,1,6,1","forward","false"
"html-keyboard-response","41","179195","0.0-9.0-0.0","1074","digit-span","true","0","","null","<div class = centerbox><div class = center-text>8 Digits</p></div>","null","test_intro","","","","","","","","","","","","","","",""
"poldrack-multi-stim-multi-response","42","189798","0.0-9.0-1.0","1074","digit-span","true","0","","[-1]","","","stim","","[""<div class = centerbox><div class = digit-span-text>1</div></div>"",""<div class = centerbox><div class = digit-span-text>6</div></div>"",""<div class = centerbox><div class = digit-span-text>4</div></div>"",""<div class = centerbox><div class = digit-span-text>5</div></div>"",""<div class = centerbox><div class = digit-span-text>9</div></div>"",""<div class = centerbox><div class = digit-span-text>7</div></div>"",""<div class = centerbox><div class = digit-span-text>6</div></div>"",""<div class = centerbox><div class = digit-span-text>3</div></div>""]","[-1]","none","[1000,1000,1000,1000,1000,1000,1000,1000]","9600","0","test","1,6,4,5,9,7,6,3","8","","","","",""
"single-stim-button","43","198623","0.0-9.0-2.0","1074","digit-span","true","0","","8825","","","response","","","","","","8825","1000","test","1,6,4,5,9,7,6,3","8","SubmitButton","8825","1,6,4,5,8,5,6,2","forward","false"
"html-keyboard-response","44","199624","0.0-9.0-3.0","1074","digit-span","true","0","","null","<div class = centerbox><div class = center-text>8 Digits</p></div>","null","test_intro","","","","","","","","","","","","","","",""
"poldrack-multi-stim-multi-response","45","210227","0.0-9.0-4.0","1074","digit-span","true","0","","[-1]","","","stim","","[""<div class = centerbox><div class = digit-span-text>2</div></div>"",""<div class = centerbox><div class = digit-span-text>9</div></div>"",""<div class = centerbox><div class = digit-span-text>7</div></div>"",""<div class = centerbox><div class = digit-span-text>6</div></div>"",""<div class = centerbox><div class = digit-span-text>3</div></div>"",""<div class = centerbox><div class = digit-span-text>1</div></div>"",""<div class = centerbox><div class = digit-span-text>5</div></div>"",""<div class = centerbox><div class = digit-span-text>4</div></div>""]","[-1]","none","[1000,1000,1000,1000,1000,1000,1000,1000]","9600","0","test","2,9,7,6,3,1,5,4","8","","","","",""
"single-stim-button","46","226186","0.0-9.0-5.0","1074","digit-span","true","0","","15958","","","response","","","","","","15958","1000","test","2,9,7,6,3,1,5,4","8","SubmitButton","15958","2,9,7,6,2,5,6,5","forward","false"
"html-keyboard-response","47","236252","0.0-11.0","1074","digit-span","true","0","","10065.300000011921","<div class = centerbox><p class = block-text>Now, you will see some numbers, but this time you will enter them <strong>backward</strong>.<br><br>For example, you see <strong>“1—5”</strong>, and you will enter <strong>“5—1”</strong>.<br><br><br>Press <strong>""Enter/Return""</strong> to begin.</p></div>","13","start_reverse","","","","","","","","","","","","","","",""
"html-keyboard-response","48","237255","0.0-12.0-0.0","1074","digit-span","true","0","","null","<div class = centerbox><div class = center-text>2 Digits</p></div>","null","test_intro","","","","","","","","","","","","","","",""
"poldrack-multi-stim-multi-response","49","240658","0.0-12.0-1.0","1074","digit-span","true","0","","[-1]","","","stim","","[""<div class = centerbox><div class = digit-span-text>8</div></div>"",""<div class = centerbox><div class = digit-span-text>2</div></div>""]","[-1]","none","[1000,1000]","2400","0","test","8,2","2","","","","",""
"single-stim-button","50","243998","0.0-12.0-2.0","1074","digit-span","true","0","","3340","","","response","","","","","","3340","1000","test","8,2","2","SubmitButton","3340","2,8","practice","true"
"html-keyboard-response","51","254001","0.0-12.0-3.0","1074","digit-span","true","0","","null","<div class = centerbox><div class = center-block-text><span style=""color:green"">Correct!</span></div></div>","null","feedback","","","","","","","","","","","","","","",""
"html-keyboard-response","52","255002","0.0-12.0-4.0","1074","digit-span","true","0","","null","<div class = centerbox><div class = center-text>2 Digits</p></div>","null","test_intro","","","","","","","","","","","","","","",""
"poldrack-multi-stim-multi-response","53","258405","0.0-12.0-5.0","1074","digit-span","true","0","","[-1]","","","stim","","[""<div class = centerbox><div class = digit-span-text>5</div></div>"",""<div class = centerbox><div class = digit-span-text>6</div></div>""]","[-1]","none","[1000,1000]","2400","0","test","5,6","2","","","","",""
"single-stim-button","54","260386","0.0-12.0-6.0","1074","digit-span","true","0","","1980","","","response","","","","","","1980","1000","test","5,6","2","SubmitButton","1980","6,5","practice","true"
"html-keyboard-response","55","261388","0.0-13.0-0.0","1074","digit-span","true","0","","null","<div class = centerbox><div class = center-text>2 Digits</p></div>","null","test_intro","","","","","","","","","","","","","","",""
"poldrack-multi-stim-multi-response","56","264791","0.0-13.0-1.0","1074","digit-span","true","0","","[-1]","","","stim","","[""<div class = centerbox><div class = digit-span-text>2</div></div>"",""<div class = centerbox><div class = digit-span-text>5</div></div>""]","[-1]","none","[1000,1000]","2400","0","test","2,5","2","","","","",""
"single-stim-button","57","266829","0.0-13.0-2.0","1074","digit-span","true","0","","2037","","","response","","","","","","2037","1000","test","2,5","2","SubmitButton","2037","5,2","reverse","true"
"html-keyboard-response","58","267830","0.0-13.0-3.0","1074","digit-span","true","0","","null","<div class = centerbox><div class = center-text>2 Digits</p></div>","null","test_intro","","","","","","","","","","","","","","",""
"poldrack-multi-stim-multi-response","59","271233","0.0-13.0-4.0","1074","digit-span","true","0","","[-1]","","","stim","","[""<div class = centerbox><div class = digit-span-text>6</div></div>"",""<div class = centerbox><div class = digit-span-text>3</div></div>""]","[-1]","none","[1000,1000]","2400","0","test","6,3","2","","","","",""
"single-stim-button","60","274059","0.0-13.0-5.0","1074","digit-span","true","0","","2825","","","response","","","","","","2825","1000","test","6,3","2","SubmitButton","2825","3,6","reverse","true"
"html-keyboard-response","61","275060","0.0-14.0-0.0","1074","digit-span","true","0","","null","<div class = centerbox><div class = center-text>3 Digits</p></div>","null","test_intro","","","","","","","","","","","","","","",""
"poldrack-multi-stim-multi-response","62","279665","0.0-14.0-1.0","1074","digit-span","true","0","","[-1]","","","stim","","[""<div class = centerbox><div class = digit-span-text>5</div></div>"",""<div class = centerbox><div class = digit-span-text>7</div></div>"",""<div class = centerbox><div class = digit-span-text>4</div></div>""]","[-1]","none","[1000,1000,1000]","3600","0","test","5,7,4","3","","","","",""
"single-stim-button","63","283172","0.0-14.0-2.0","1074","digit-span","true","0","","3507","","","response","","","","","","3507","1000","test","5,7,4","3","SubmitButton","3507","4,7,5","reverse","true"
"html-keyboard-response","64","284173","0.0-14.0-3.0","1074","digit-span","true","0","","null","<div class = centerbox><div class = center-text>3 Digits</p></div>","null","test_intro","","","","","","","","","","","","","","",""
"poldrack-multi-stim-multi-response","65","288777","0.0-14.0-4.0","1074","digit-span","true","0","","[-1]","","","stim","","[""<div class = centerbox><div class = digit-span-text>2</div></div>"",""<div class = centerbox><div class = digit-span-text>5</div></div>"",""<div class = centerbox><div class = digit-span-text>9</div></div>""]","[-1]","none","[1000,1000,1000]","3600","0","test","2,5,9","3","","","","",""
"single-stim-button","66","292758","0.0-14.0-5.0","1074","digit-span","true","0","","3981","","","response","","","","","","3981","1000","test","2,5,9","3","SubmitButton","3981","9,5,2","reverse","true"
"html-keyboard-response","67","293760","0.0-15.0-0.0","1074","digit-span","true","0","","null","<div class = centerbox><div class = center-text>4 Digits</p></div>","null","test_intro","","","","","","","","","","","","","","",""
"poldrack-multi-stim-multi-response","68","299563","0.0-15.0-1.0","1074","digit-span","true","0","","[-1]","","","stim","","[""<div class = centerbox><div class = digit-span-text>7</div></div>"",""<div class = centerbox><div class = digit-span-text>2</div></div>"",""<div class = centerbox><div class = digit-span-text>9</div></div>"",""<div class = centerbox><div class = digit-span-text>6</div></div>""]","[-1]","none","[1000,1000,1000,1000]","4800","0","test","7,2,9,6","4","","","","",""
"single-stim-button","69","306497","0.0-15.0-2.0","1074","digit-span","true","0","","6934","","","response","","","","","","6934","1000","test","7,2,9,6","4","SubmitButton","6934","6,9,7,2","reverse","false"
"html-keyboard-response","70","307499","0.0-15.0-3.0","1074","digit-span","true","0","","null","<div class = centerbox><div class = center-text>4 Digits</p></div>","null","test_intro","","","","","","","","","","","","","","",""
"poldrack-multi-stim-multi-response","71","313303","0.0-15.0-4.0","1074","digit-span","true","0","","[-1]","","","stim","","[""<div class = centerbox><div class = digit-span-text>8</div></div>"",""<div class = centerbox><div class = digit-span-text>4</div></div>"",""<div class = centerbox><div class = digit-span-text>9</div></div>"",""<div class = centerbox><div class = digit-span-text>3</div></div>""]","[-1]","none","[1000,1000,1000,1000]","4800","0","test","8,4,9,3","4","","","","",""
"single-stim-button","72","318880","0.0-15.0-5.0","1074","digit-span","true","0","","5576","","","response","","","","","","5576","1000","test","8,4,9,3","4","SubmitButton","5576","3,9,4,8","reverse","true"
"html-keyboard-response","73","319881","0.0-16.0-0.0","1074","digit-span","true","0","","null","<div class = centerbox><div class = center-text>5 Digits</p></div>","null","test_intro","","","","","","","","","","","","","","",""
"poldrack-multi-stim-multi-response","74","326884","0.0-16.0-1.0","1074","digit-span","true","0","","[-1]","","","stim","","[""<div class = centerbox><div class = digit-span-text>4</div></div>"",""<div class = centerbox><div class = digit-span-text>1</div></div>"",""<div class = centerbox><div class = digit-span-text>3</div></div>"",""<div class = centerbox><div class = digit-span-text>5</div></div>"",""<div class = centerbox><div class = digit-span-text>7</div></div>""]","[-1]","none","[1000,1000,1000,1000,1000]","6000","0","test","4,1,3,5,7","5","","","","",""
"single-stim-button","75","338935","0.0-16.0-2.0","1074","digit-span","true","0","","12051","","","response","","","","","","12051","1000","test","4,1,3,5,7","5","SubmitButton","12051","7,5,3,1,4","reverse","true"
"html-keyboard-response","76","339938","0.0-16.0-3.0","1074","digit-span","true","0","","null","<div class = centerbox><div class = center-text>5 Digits</p></div>","null","test_intro","","","","","","","","","","","","","","",""
"poldrack-multi-stim-multi-response","77","346940","0.0-16.0-4.0","1074","digit-span","true","0","","[-1]","","","stim","","[""<div class = centerbox><div class = digit-span-text>9</div></div>"",""<div class = centerbox><div class = digit-span-text>7</div></div>"",""<div class = centerbox><div class = digit-span-text>8</div></div>"",""<div class = centerbox><div class = digit-span-text>5</div></div>"",""<div class = centerbox><div class = digit-span-text>2</div></div>""]","[-1]","none","[1000,1000,1000,1000,1000]","6000","0","test","9,7,8,5,2","5","","","","",""
"single-stim-button","78","356718","0.0-16.0-5.0","1074","digit-span","true","0","","9777","","","response","","","","","","9777","1000","test","9,7,8,5,2","5","SubmitButton","9777","2,5,8,7,9","reverse","true"
"html-keyboard-response","79","357719","0.0-17.0-0.0","1074","digit-span","true","0","","null","<div class = centerbox><div class = center-text>6 Digits</p></div>","null","test_intro","","","","","","","","","","","","","","",""
"poldrack-multi-stim-multi-response","80","365922","0.0-17.0-1.0","1074","digit-span","true","0","","[-1]","","","stim","","[""<div class = centerbox><div class = digit-span-text>1</div></div>"",""<div class = centerbox><div class = digit-span-text>6</div></div>"",""<div class = centerbox><div class = digit-span-text>5</div></div>"",""<div class = centerbox><div class = digit-span-text>2</div></div>"",""<div class = centerbox><div class = digit-span-text>9</div></div>"",""<div class = centerbox><div class = digit-span-text>8</div></div>""]","[-1]","none","[1000,1000,1000,1000,1000,1000]","7200","0","test","1,6,5,2,9,8","6","","","","",""
"single-stim-button","81","375850","0.0-17.0-2.0","1074","digit-span","true","0","","9928","","","response","","","","","","9928","1000","test","1,6,5,2,9,8","6","SubmitButton","9928","8,9,2,5,6,1","reverse","true"
"html-keyboard-response","82","376852","0.0-17.0-3.0","1074","digit-span","true","0","","null","<div class = centerbox><div class = center-text>6 Digits</p></div>","null","test_intro","","","","","","","","","","","","","","",""
"poldrack-multi-stim-multi-response","83","385055","0.0-17.0-4.0","1074","digit-span","true","0","","[-1]","","","stim","","[""<div class = centerbox><div class = digit-span-text>3</div></div>"",""<div class = centerbox><div class = digit-span-text>6</div></div>"",""<div class = centerbox><div class = digit-span-text>7</div></div>"",""<div class = centerbox><div class = digit-span-text>1</div></div>"",""<div class = centerbox><div class = digit-span-text>9</div></div>"",""<div class = centerbox><div class = digit-span-text>4</div></div>""]","[-1]","none","[1000,1000,1000,1000,1000,1000]","7200","0","test","3,6,7,1,9,4","6","","","","",""
"single-stim-button","84","397390","0.0-17.0-5.0","1074","digit-span","true","0","","12335","","","response","","","","","","12335","1000","test","3,6,7,1,9,4","6","SubmitButton","12335","4,9,1,7,6,3","reverse","true"
"html-keyboard-response","85","398391","0.0-18.0-0.0","1074","digit-span","true","0","","null","<div class = centerbox><div class = center-text>7 Digits</p></div>","null","test_intro","","","","","","","","","","","","","","",""
"poldrack-multi-stim-multi-response","86","407794","0.0-18.0-1.0","1074","digit-span","true","0","","[-1]","","","stim","","[""<div class = centerbox><div class = digit-span-text>8</div></div>"",""<div class = centerbox><div class = digit-span-text>5</div></div>"",""<div class = centerbox><div class = digit-span-text>9</div></div>"",""<div class = centerbox><div class = digit-span-text>2</div></div>"",""<div class = centerbox><div class = digit-span-text>3</div></div>"",""<div class = centerbox><div class = digit-span-text>4</div></div>"",""<div class = centerbox><div class = digit-span-text>2</div></div>""]","[-1]","none","[1000,1000,1000,1000,1000,1000,1000]","8400","0","test","8,5,9,2,3,4,2","7","","","","",""
"single-stim-button","87","422268","0.0-18.0-2.0","1074","digit-span","true","0","","14474","","","response","","","","","","14474","1000","test","8,5,9,2,3,4,2","7","SubmitButton","14474","2,4,3,2,9,8,7,4","reverse","false"
"html-keyboard-response","88","423271","0.0-18.0-3.0","1074","digit-span","true","0","","null","<div class = centerbox><div class = center-text>7 Digits</p></div>","null","test_intro","","","","","","","","","","","","","","",""
"poldrack-multi-stim-multi-response","89","432675","0.0-18.0-4.0","1074","digit-span","true","0","","[-1]","","","stim","","[""<div class = centerbox><div class = digit-span-text>4</div></div>"",""<div class = centerbox><div class = digit-span-text>5</div></div>"",""<div class = centerbox><div class = digit-span-text>7</div></div>"",""<div class = centerbox><div class = digit-span-text>9</div></div>"",""<div class = centerbox><div class = digit-span-text>2</div></div>"",""<div class = centerbox><div class = digit-span-text>8</div></div>"",""<div class = centerbox><div class = digit-span-text>1</div></div>""]","[-1]","none","[1000,1000,1000,1000,1000,1000,1000]","8400","0","test","4,5,7,9,2,8,1","7","","","","",""
"single-stim-button","90","453858","0.0-18.0-5.0","1074","digit-span","true","0","","21182","","","response","","","","","","21182","1000","test","4,5,7,9,2,8,1","7","SubmitButton","21182","1,8,2,9,7,1,5,4","reverse","false"
"image-keyboard-response","91","458005","0.0-20.0","1074","digit-span","true","0","","4146.199999988079","img/trophy2.jpeg","13","end","","","","","","","","","","","","","","",""
