"trial_type","trial_index","time_elapsed","internal_node_id","subject","exp_id","full_screen","focus_shifts","success","rt","stimulus","key_press","trial_id","view_history","stimuli","key_presses","possible_responses","stim_durations","block_duration","timing_post_trial","exp_stage","sequence","num_digits","mouse_click","stim_duration","response","condition","correct"
"pavlovia","0","2083","0.0-0.0","1199","digit-span","true","0","","","","","","","","","","","","","","","","","","","",""
"fullscreen","1","5958","0.0-1.0","1199","digit-span","true","0","true","","","","","","","","","","","","","","","","","","",""
"html-keyboard-response","2","11537","0.0-2.0-0.0","1199","digit-span","true","0","","5576.300000011921","<div class = centerbox><p class = center-block-text>Welcome to the number game! It will take less than 5 minutes. Press <strong>""Enter/Return""</strong> to begin.</p></div>","13","instruction","","","","","","","","","","","","","","",""
"instructions","3","28987","0.0-2.0-1.0","1199","digit-span","true","0","","17449.69999998808","","","instruction","[{""page_index"":0,""viewing_time"":17449.29999998212}]","","","","","","","","","","","","","",""
"instructions","4","40233","0.0-2.0-2.0","1199","digit-span","true","0","","10241.59999999404","","","instruction","[{""page_index"":0,""viewing_time"":10241.40000000596}]","","","","","","","","","","","","","",""
"html-keyboard-response","5","42240","0.0-3.0-0.0","1199","digit-span","true","0","","null","<div class = centerbox><div class = center-text>2 Digits</p></div>","null","test_intro","","","","","","","","","","","","","","",""
"poldrack-multi-stim-multi-response","6","45653","0.0-3.0-1.0","1199","digit-span","true","0","","[-1]","","","stim","","[""<div class = centerbox><div class = digit-span-text>2</div></div>"",""<div class = centerbox><div class = digit-span-text>9</div></div>""]","[-1]","none","[1000,1000]","2400","0","test","2,9","2","","","","",""
"single-stim-button","7","50328","0.0-3.0-2.0","1199","digit-span","true","0","","4673","","","response","","","","","","4673","1000","test","2,9","2","SubmitButton","4673","2,9","forward","true"
"html-keyboard-response","8","51330","0.0-3.0-3.0","1199","digit-span","true","0","","null","<div class = centerbox><div class = center-text>2 Digits</p></div>","null","test_intro","","","","","","","","","","","","","","",""
"poldrack-multi-stim-multi-response","9","54738","0.0-3.0-4.0","1199","digit-span","true","0","","[-1]","","","stim","","[""<div class = centerbox><div class = digit-span-text>4</div></div>"",""<div class = centerbox><div class = digit-span-text>6</div></div>""]","[-1]","none","[1000,1000]","2400","0","test","4,6","2","","","","",""
"single-stim-button","10","58300","0.0-3.0-5.0","1199","digit-span","true","0","","3561","","","response","","","","","","3561","1000","test","4,6","2","SubmitButton","3561","4,6","forward","true"
"html-keyboard-response","11","59301","0.0-4.0-0.0","1199","digit-span","true","0","","null","<div class = centerbox><div class = center-text>3 Digits</p></div>","null","test_intro","","","","","","","","","","","","","","",""
"poldrack-multi-stim-multi-response","12","63909","0.0-4.0-1.0","1199","digit-span","true","0","","[-1]","","","stim","","[""<div class = centerbox><div class = digit-span-text>3</div></div>"",""<div class = centerbox><div class = digit-span-text>8</div></div>"",""<div class = centerbox><div class = digit-span-text>6</div></div>""]","[-1]","none","[1000,1000,1000]","3600","0","test","3,8,6","3","","","","",""
"single-stim-button","13","73667","0.0-4.0-2.0","1199","digit-span","true","0","","9756","","","response","","","","","","9756","1000","test","3,8,6","3","SubmitButton","9756","3,8,6","forward","true"
"html-keyboard-response","14","74669","0.0-4.0-3.0","1199","digit-span","true","0","","null","<div class = centerbox><div class = center-text>3 Digits</p></div>","null","test_intro","","","","","","","","","","","","","","",""
"poldrack-multi-stim-multi-response","15","79274","0.0-4.0-4.0","1199","digit-span","true","0","","[-1]","","","stim","","[""<div class = centerbox><div class = digit-span-text>6</div></div>"",""<div class = centerbox><div class = digit-span-text>1</div></div>"",""<div class = centerbox><div class = digit-span-text>2</div></div>""]","[-1]","none","[1000,1000,1000]","3600","0","test","6,1,2","3","","","","",""
"single-stim-button","16","83211","0.0-4.0-5.0","1199","digit-span","true","0","","3935","","","response","","","","","","3935","1000","test","6,1,2","3","SubmitButton","3935","6,1,2","forward","true"
"html-keyboard-response","17","84213","0.0-5.0-0.0","1199","digit-span","true","0","","null","<div class = centerbox><div class = center-text>4 Digits</p></div>","null","test_intro","","","","","","","","","","","","","","",""
"poldrack-multi-stim-multi-response","18","90025","0.0-5.0-1.0","1199","digit-span","true","0","","[-1]","","","stim","","[""<div class = centerbox><div class = digit-span-text>3</div></div>"",""<div class = centerbox><div class = digit-span-text>4</div></div>"",""<div class = centerbox><div class = digit-span-text>1</div></div>"",""<div class = centerbox><div class = digit-span-text>7</div></div>""]","[-1]","none","[1000,1000,1000,1000]","4800","0","test","3,4,1,7","4","","","","",""
"single-stim-button","19","97782","0.0-5.0-2.0","1199","digit-span","true","0","","7755","","","response","","","","","","7755","1000","test","3,4,1,7","4","SubmitButton","7755","3,4,1,7","forward","true"
"html-keyboard-response","20","98785","0.0-5.0-3.0","1199","digit-span","true","0","","null","<div class = centerbox><div class = center-text>4 Digits</p></div>","null","test_intro","","","","","","","","","","","","","","",""
"poldrack-multi-stim-multi-response","21","104595","0.0-5.0-4.0","1199","digit-span","true","0","","[-1]","","","stim","","[""<div class = centerbox><div class = digit-span-text>6</div></div>"",""<div class = centerbox><div class = digit-span-text>1</div></div>"",""<div class = centerbox><div class = digit-span-text>5</div></div>"",""<div class = centerbox><div class = digit-span-text>8</div></div>""]","[-1]","none","[1000,1000,1000,1000]","4800","0","test","6,1,5,8","4","","","","",""
"single-stim-button","22","109398","0.0-5.0-5.0","1199","digit-span","true","0","","4801","","","response","","","","","","4801","1000","test","6,1,5,8","4","SubmitButton","4801","6,1,5,8","forward","true"
"html-keyboard-response","23","110399","0.0-6.0-0.0","1199","digit-span","true","0","","null","<div class = centerbox><div class = center-text>5 Digits</p></div>","null","test_intro","","","","","","","","","","","","","","",""
"poldrack-multi-stim-multi-response","24","117407","0.0-6.0-1.0","1199","digit-span","true","0","","[-1]","","","stim","","[""<div class = centerbox><div class = digit-span-text>8</div></div>"",""<div class = centerbox><div class = digit-span-text>4</div></div>"",""<div class = centerbox><div class = digit-span-text>2</div></div>"",""<div class = centerbox><div class = digit-span-text>3</div></div>"",""<div class = centerbox><div class = digit-span-text>9</div></div>""]","[-1]","none","[1000,1000,1000,1000,1000]","6000","0","test","8,4,2,3,9","5","","","","",""
"single-stim-button","25","123753","0.0-6.0-2.0","1199","digit-span","true","0","","6344","","","response","","","","","","6344","1000","test","8,4,2,3,9","5","SubmitButton","6344","8,4,2,3,9","forward","true"
"html-keyboard-response","26","124755","0.0-6.0-3.0","1199","digit-span","true","0","","null","<div class = centerbox><div class = center-text>5 Digits</p></div>","null","test_intro","","","","","","","","","","","","","","",""
"poldrack-multi-stim-multi-response","27","131762","0.0-6.0-4.0","1199","digit-span","true","0","","[-1]","","","stim","","[""<div class = centerbox><div class = digit-span-text>5</div></div>"",""<div class = centerbox><div class = digit-span-text>2</div></div>"",""<div class = centerbox><div class = digit-span-text>1</div></div>"",""<div class = centerbox><div class = digit-span-text>8</div></div>"",""<div class = centerbox><div class = digit-span-text>6</div></div>""]","[-1]","none","[1000,1000,1000,1000,1000]","6000","0","test","5,2,1,8,6","5","","","","",""
"single-stim-button","28","136954","0.0-6.0-5.0","1199","digit-span","true","0","","5190","","","response","","","","","","5190","1000","test","5,2,1,8,6","5","SubmitButton","5190","5,2,1,8,6","forward","true"
"html-keyboard-response","29","137956","0.0-7.0-0.0","1199","digit-span","true","0","","null","<div class = centerbox><div class = center-text>6 Digits</p></div>","null","test_intro","","","","","","","","","","","","","","",""
"poldrack-multi-stim-multi-response","30","146164","0.0-7.0-1.0","1199","digit-span","true","0","","[-1]","","","stim","","[""<div class = centerbox><div class = digit-span-text>3</div></div>"",""<div class = centerbox><div class = digit-span-text>8</div></div>"",""<div class = centerbox><div class = digit-span-text>9</div></div>"",""<div class = centerbox><div class = digit-span-text>1</div></div>"",""<div class = centerbox><div class = digit-span-text>7</div></div>"",""<div class = centerbox><div class = digit-span-text>4</div></div>""]","[-1]","none","[1000,1000,1000,1000,1000,1000]","7200","0","test","3,8,9,1,7,4","6","","","","",""
"single-stim-button","31","155900","0.0-7.0-2.0","1199","digit-span","true","0","","9734","","","response","","","","","","9734","1000","test","3,8,9,1,7,4","6","SubmitButton","9734","3,8,9,1,7,4","forward","true"
"html-keyboard-response","32","156903","0.0-7.0-3.0","1199","digit-span","true","0","","null","<div class = centerbox><div class = center-text>6 Digits</p></div>","null","test_intro","","","","","","","","","","","","","","",""
"poldrack-multi-stim-multi-response","33","165111","0.0-7.0-4.0","1199","digit-span","true","0","","[-1]","","","stim","","[""<div class = centerbox><div class = digit-span-text>7</div></div>"",""<div class = centerbox><div class = digit-span-text>9</div></div>"",""<div class = centerbox><div class = digit-span-text>6</div></div>"",""<div class = centerbox><div class = digit-span-text>4</div></div>"",""<div class = centerbox><div class = digit-span-text>8</div></div>"",""<div class = centerbox><div class = digit-span-text>3</div></div>""]","[-1]","none","[1000,1000,1000,1000,1000,1000]","7200","0","test","7,9,6,4,8,3","6","","","","",""
"single-stim-button","34","201864","0.0-7.0-5.0","1199","digit-span","true","0","","36751","","","response","","","","","","36751","1000","test","7,9,6,4,8,3","6","SubmitButton","36751","7,9,6,4,8,7","forward","false"
"html-keyboard-response","35","202866","0.0-8.0-0.0","1199","digit-span","true","0","","null","<div class = centerbox><div class = center-text>7 Digits</p></div>","null","test_intro","","","","","","","","","","","","","","",""
"poldrack-multi-stim-multi-response","36","212275","0.0-8.0-1.0","1199","digit-span","true","0","","[-1]","","","stim","","[""<div class = centerbox><div class = digit-span-text>5</div></div>"",""<div class = centerbox><div class = digit-span-text>1</div></div>"",""<div class = centerbox><div class = digit-span-text>7</div></div>"",""<div class = centerbox><div class = digit-span-text>4</div></div>"",""<div class = centerbox><div class = digit-span-text>2</div></div>"",""<div class = centerbox><div class = digit-span-text>3</div></div>"",""<div class = centerbox><div class = digit-span-text>8</div></div>""]","[-1]","none","[1000,1000,1000,1000,1000,1000,1000]","8400","0","test","5,1,7,4,2,3,8","7","","","","",""
"single-stim-button","37","220697","0.0-8.0-2.0","1199","digit-span","true","0","","8420","","","response","","","","","","8420","1000","test","5,1,7,4,2,3,8","7","SubmitButton","8420","5,1,7,4,2,3,8","forward","true"
"html-keyboard-response","38","221698","0.0-8.0-3.0","1199","digit-span","true","0","","null","<div class = centerbox><div class = center-text>7 Digits</p></div>","null","test_intro","","","","","","","","","","","","","","",""
"poldrack-multi-stim-multi-response","39","231106","0.0-8.0-4.0","1199","digit-span","true","0","","[-1]","","","stim","","[""<div class = centerbox><div class = digit-span-text>9</div></div>"",""<div class = centerbox><div class = digit-span-text>8</div></div>"",""<div class = centerbox><div class = digit-span-text>5</div></div>"",""<div class = centerbox><div class = digit-span-text>2</div></div>"",""<div class = centerbox><div class = digit-span-text>1</div></div>"",""<div class = centerbox><div class = digit-span-text>6</div></div>"",""<div class = centerbox><div class = digit-span-text>3</div></div>""]","[-1]","none","[1000,1000,1000,1000,1000,1000,1000]","8400","0","test","9,8,5,2,1,6,3","7","","","","",""
"single-stim-button","40","242896","0.0-8.0-5.0","1199","digit-span","true","0","","11789","","","response","","","","","","11789","1000","test","9,8,5,2,1,6,3","7","SubmitButton","11789","9,8,5,2,8,1,6","forward","false"
"html-keyboard-response","41","243899","0.0-9.0-0.0","1199","digit-span","true","0","","null","<div class = centerbox><div class = center-text>8 Digits</p></div>","null","test_intro","","","","","","","","","","","","","","",""
"poldrack-multi-stim-multi-response","42","254505","0.0-9.0-1.0","1199","digit-span","true","0","","[-1]","","","stim","","[""<div class = centerbox><div class = digit-span-text>1</div></div>"",""<div class = centerbox><div class = digit-span-text>6</div></div>"",""<div class = centerbox><div class = digit-span-text>4</div></div>"",""<div class = centerbox><div class = digit-span-text>5</div></div>"",""<div class = centerbox><div class = digit-span-text>9</div></div>"",""<div class = centerbox><div class = digit-span-text>7</div></div>"",""<div class = centerbox><div class = digit-span-text>6</div></div>"",""<div class = centerbox><div class = digit-span-text>3</div></div>""]","[-1]","none","[1000,1000,1000,1000,1000,1000,1000,1000]","9600","0","test","1,6,4,5,9,7,6,3","8","","","","",""
"single-stim-button","43","267125","0.0-9.0-2.0","1199","digit-span","true","0","","12617","","","response","","","","","","12617","1000","test","1,6,4,5,9,7,6,3","8","SubmitButton","12617","6,1,4,5,9,7,8,3","forward","false"
"html-keyboard-response","44","268127","0.0-9.0-3.0","1199","digit-span","true","0","","null","<div class = centerbox><div class = center-text>8 Digits</p></div>","null","test_intro","","","","","","","","","","","","","","",""
"poldrack-multi-stim-multi-response","45","278735","0.0-9.0-4.0","1199","digit-span","true","0","","[-1]","","","stim","","[""<div class = centerbox><div class = digit-span-text>2</div></div>"",""<div class = centerbox><div class = digit-span-text>9</div></div>"",""<div class = centerbox><div class = digit-span-text>7</div></div>"",""<div class = centerbox><div class = digit-span-text>6</div></div>"",""<div class = centerbox><div class = digit-span-text>3</div></div>"",""<div class = centerbox><div class = digit-span-text>1</div></div>"",""<div class = centerbox><div class = digit-span-text>5</div></div>"",""<div class = centerbox><div class = digit-span-text>4</div></div>""]","[-1]","none","[1000,1000,1000,1000,1000,1000,1000,1000]","9600","0","test","2,9,7,6,3,1,5,4","8","","","","",""
"single-stim-button","46","294157","0.0-9.0-5.0","1199","digit-span","true","0","","15420","","","response","","","","","","15420","1000","test","2,9,7,6,3,1,5,4","8","SubmitButton","15420","2,9,7,6,3,9,5,4","forward","false"
"html-keyboard-response","47","305720","0.0-11.0","1199","digit-span","true","0","","11561.40000000596","<div class = centerbox><p class = block-text>Now, you will see some numbers, but this time you will enter them <strong>backward</strong>.<br><br>For example, you see <strong>“1—5”</strong>, and you will enter <strong>“5—1”</strong>.<br><br><br>Press <strong>""Enter/Return""</strong> to begin.</p></div>","13","start_reverse","","","","","","","","","","","","","","",""
"html-keyboard-response","48","306726","0.0-12.0-0.0","1199","digit-span","true","0","","null","<div class = centerbox><div class = center-text>2 Digits</p></div>","null","test_intro","","","","","","","","","","","","","","",""
"poldrack-multi-stim-multi-response","49","310133","0.0-12.0-1.0","1199","digit-span","true","0","","[-1]","","","stim","","[""<div class = centerbox><div class = digit-span-text>8</div></div>"",""<div class = centerbox><div class = digit-span-text>2</div></div>""]","[-1]","none","[1000,1000]","2400","0","test","8,2","2","","","","",""
"single-stim-button","50","315889","0.0-12.0-2.0","1199","digit-span","true","0","","5754","","","response","","","","","","5754","1000","test","8,2","2","SubmitButton","5754","2,8","practice","true"
"html-keyboard-response","51","325893","0.0-12.0-3.0","1199","digit-span","true","0","","null","<div class = centerbox><div class = center-block-text><span style=""color:green"">Correct!</span></div></div>","null","feedback","","","","","","","","","","","","","","",""
"html-keyboard-response","52","326898","0.0-12.0-4.0","1199","digit-span","true","0","","null","<div class = centerbox><div class = center-text>2 Digits</p></div>","null","test_intro","","","","","","","","","","","","","","",""
"poldrack-multi-stim-multi-response","53","330305","0.0-12.0-5.0","1199","digit-span","true","0","","[-1]","","","stim","","[""<div class = centerbox><div class = digit-span-text>5</div></div>"",""<div class = centerbox><div class = digit-span-text>6</div></div>""]","[-1]","none","[1000,1000]","2400","0","test","5,6","2","","","","",""
"single-stim-button","54","332889","0.0-12.0-6.0","1199","digit-span","true","0","","2584","","","response","","","","","","2584","1000","test","5,6","2","SubmitButton","2584","6,5","practice","true"
"html-keyboard-response","55","333891","0.0-13.0-0.0","1199","digit-span","true","0","","null","<div class = centerbox><div class = center-text>2 Digits</p></div>","null","test_intro","","","","","","","","","","","","","","",""
"poldrack-multi-stim-multi-response","56","337300","0.0-13.0-1.0","1199","digit-span","true","0","","[-1]","","","stim","","[""<div class = centerbox><div class = digit-span-text>2</div></div>"",""<div class = centerbox><div class = digit-span-text>5</div></div>""]","[-1]","none","[1000,1000]","2400","0","test","2,5","2","","","","",""
"single-stim-button","57","340620","0.0-13.0-2.0","1199","digit-span","true","0","","3318","","","response","","","","","","3318","1000","test","2,5","2","SubmitButton","3318","5,2","reverse","true"
"html-keyboard-response","58","341622","0.0-13.0-3.0","1199","digit-span","true","0","","null","<div class = centerbox><div class = center-text>2 Digits</p></div>","null","test_intro","","","","","","","","","","","","","","",""
"poldrack-multi-stim-multi-response","59","345032","0.0-13.0-4.0","1199","digit-span","true","0","","[-1]","","","stim","","[""<div class = centerbox><div class = digit-span-text>6</div></div>"",""<div class = centerbox><div class = digit-span-text>3</div></div>""]","[-1]","none","[1000,1000]","2400","0","test","6,3","2","","","","",""
"single-stim-button","60","347874","0.0-13.0-5.0","1199","digit-span","true","0","","2841","","","response","","","","","","2841","1000","test","6,3","2","SubmitButton","2841","3,6","reverse","true"
"html-keyboard-response","61","348876","0.0-14.0-0.0","1199","digit-span","true","0","","null","<div class = centerbox><div class = center-text>3 Digits</p></div>","null","test_intro","","","","","","","","","","","","","","",""
"poldrack-multi-stim-multi-response","62","353483","0.0-14.0-1.0","1199","digit-span","true","0","","[-1]","","","stim","","[""<div class = centerbox><div class = digit-span-text>5</div></div>"",""<div class = centerbox><div class = digit-span-text>7</div></div>"",""<div class = centerbox><div class = digit-span-text>4</div></div>""]","[-1]","none","[1000,1000,1000]","3600","0","test","5,7,4","3","","","","",""
"single-stim-button","63","357561","0.0-14.0-2.0","1199","digit-span","true","0","","4076","","","response","","","","","","4076","1000","test","5,7,4","3","SubmitButton","4076","4,7,5","reverse","true"
"html-keyboard-response","64","358563","0.0-14.0-3.0","1199","digit-span","true","0","","null","<div class = centerbox><div class = center-text>3 Digits</p></div>","null","test_intro","","","","","","","","","","","","","","",""
"poldrack-multi-stim-multi-response","65","363172","0.0-14.0-4.0","1199","digit-span","true","0","","[-1]","","","stim","","[""<div class = centerbox><div class = digit-span-text>2</div></div>"",""<div class = centerbox><div class = digit-span-text>5</div></div>"",""<div class = centerbox><div class = digit-span-text>9</div></div>""]","[-1]","none","[1000,1000,1000]","3600","0","test","2,5,9","3","","","","",""
"single-stim-button","66","367225","0.0-14.0-5.0","1199","digit-span","true","0","","4052","","","response","","","","","","4052","1000","test","2,5,9","3","SubmitButton","4052","9,2,5","reverse","false"
"html-keyboard-response","67","368228","0.0-15.0-0.0","1199","digit-span","true","0","","null","<div class = centerbox><div class = center-text>4 Digits</p></div>","null","test_intro","","","","","","","","","","","","","","",""
"poldrack-multi-stim-multi-response","68","374039","0.0-15.0-1.0","1199","digit-span","true","0","","[-1]","","","stim","","[""<div class = centerbox><div class = digit-span-text>7</div></div>"",""<div class = centerbox><div class = digit-span-text>2</div></div>"",""<div class = centerbox><div class = digit-span-text>9</div></div>"",""<div class = centerbox><div class = digit-span-text>6</div></div>""]","[-1]","none","[1000,1000,1000,1000]","4800","0","test","7,2,9,6","4","","","","",""
"single-stim-button","69","385161","0.0-15.0-2.0","1199","digit-span","true","0","","11120","","","response","","","","","","11120","1000","test","7,2,9,6","4","SubmitButton","11120","6,9,2,7","reverse","true"
"html-keyboard-response","70","386164","0.0-15.0-3.0","1199","digit-span","true","0","","null","<div class = centerbox><div class = center-text>4 Digits</p></div>","null","test_intro","","","","","","","","","","","","","","",""
"poldrack-multi-stim-multi-response","71","391969","0.0-15.0-4.0","1199","digit-span","true","0","","[-1]","","","stim","","[""<div class = centerbox><div class = digit-span-text>8</div></div>"",""<div class = centerbox><div class = digit-span-text>4</div></div>"",""<div class = centerbox><div class = digit-span-text>9</div></div>"",""<div class = centerbox><div class = digit-span-text>3</div></div>""]","[-1]","none","[1000,1000,1000,1000]","4800","0","test","8,4,9,3","4","","","","",""
"single-stim-button","72","397404","0.0-15.0-5.0","1199","digit-span","true","0","","5433","","","response","","","","","","5433","1000","test","8,4,9,3","4","SubmitButton","5433","3,9,4,8","reverse","true"
"html-keyboard-response","73","398405","0.0-16.0-0.0","1199","digit-span","true","0","","null","<div class = centerbox><div class = center-text>5 Digits</p></div>","null","test_intro","","","","","","","","","","","","","","",""
"poldrack-multi-stim-multi-response","74","405417","0.0-16.0-1.0","1199","digit-span","true","0","","[-1]","","","stim","","[""<div class = centerbox><div class = digit-span-text>4</div></div>"",""<div class = centerbox><div class = digit-span-text>1</div></div>"",""<div class = centerbox><div class = digit-span-text>3</div></div>"",""<div class = centerbox><div class = digit-span-text>5</div></div>"",""<div class = centerbox><div class = digit-span-text>7</div></div>""]","[-1]","none","[1000,1000,1000,1000,1000]","6000","0","test","4,1,3,5,7","5","","","","",""
"single-stim-button","75","414739","0.0-16.0-2.0","1199","digit-span","true","0","","9320","","","response","","","","","","9320","1000","test","4,1,3,5,7","5","SubmitButton","9320","7,5,3,1,4","reverse","true"
"html-keyboard-response","76","415740","0.0-16.0-3.0","1199","digit-span","true","0","","null","<div class = centerbox><div class = center-text>5 Digits</p></div>","null","test_intro","","","","","","","","","","","","","","",""
"poldrack-multi-stim-multi-response","77","422747","0.0-16.0-4.0","1199","digit-span","true","0","","[-1]","","","stim","","[""<div class = centerbox><div class = digit-span-text>9</div></div>"",""<div class = centerbox><div class = digit-span-text>7</div></div>"",""<div class = centerbox><div class = digit-span-text>8</div></div>"",""<div class = centerbox><div class = digit-span-text>5</div></div>"",""<div class = centerbox><div class = digit-span-text>2</div></div>""]","[-1]","none","[1000,1000,1000,1000,1000]","6000","0","test","9,7,8,5,2","5","","","","",""
"single-stim-button","78","436240","0.0-16.0-5.0","1199","digit-span","true","0","","13491","","","response","","","","","","13491","1000","test","9,7,8,5,2","5","SubmitButton","13491","2,5,8,7,9","reverse","true"
"html-keyboard-response","79","437241","0.0-17.0-0.0","1199","digit-span","true","0","","null","<div class = centerbox><div class = center-text>6 Digits</p></div>","null","test_intro","","","","","","","","","","","","","","",""
"poldrack-multi-stim-multi-response","80","445449","0.0-17.0-1.0","1199","digit-span","true","0","","[-1]","","","stim","","[""<div class = centerbox><div class = digit-span-text>1</div></div>"",""<div class = centerbox><div class = digit-span-text>6</div></div>"",""<div class = centerbox><div class = digit-span-text>5</div></div>"",""<div class = centerbox><div class = digit-span-text>2</div></div>"",""<div class = centerbox><div class = digit-span-text>9</div></div>"",""<div class = centerbox><div class = digit-span-text>8</div></div>""]","[-1]","none","[1000,1000,1000,1000,1000,1000]","7200","0","test","1,6,5,2,9,8","6","","","","",""
"single-stim-button","81","463857","0.0-17.0-2.0","1199","digit-span","true","0","","18406","","","response","","","","","","18406","1000","test","1,6,5,2,9,8","6","SubmitButton","18406","8,9,2,5,6,1","reverse","true"
"html-keyboard-response","82","464860","0.0-17.0-3.0","1199","digit-span","true","0","","null","<div class = centerbox><div class = center-text>6 Digits</p></div>","null","test_intro","","","","","","","","","","","","","","",""
"poldrack-multi-stim-multi-response","83","473063","0.0-17.0-4.0","1199","digit-span","true","0","","[-1]","","","stim","","[""<div class = centerbox><div class = digit-span-text>3</div></div>"",""<div class = centerbox><div class = digit-span-text>6</div></div>"",""<div class = centerbox><div class = digit-span-text>7</div></div>"",""<div class = centerbox><div class = digit-span-text>1</div></div>"",""<div class = centerbox><div class = digit-span-text>9</div></div>"",""<div class = centerbox><div class = digit-span-text>4</div></div>""]","[-1]","none","[1000,1000,1000,1000,1000,1000]","7200","0","test","3,6,7,1,9,4","6","","","","",""
"single-stim-button","84","489207","0.0-17.0-5.0","1199","digit-span","true","0","","16141","","","response","","","","","","16141","1000","test","3,6,7,1,9,4","6","SubmitButton","16141","4,1,9,7,6,3","reverse","false"
"html-keyboard-response","85","490208","0.0-18.0-0.0","1199","digit-span","true","0","","null","<div class = centerbox><div class = center-text>7 Digits</p></div>","null","test_intro","","","","","","","","","","","","","","",""
"poldrack-multi-stim-multi-response","86","499615","0.0-18.0-1.0","1199","digit-span","true","0","","[-1]","","","stim","","[""<div class = centerbox><div class = digit-span-text>8</div></div>"",""<div class = centerbox><div class = digit-span-text>5</div></div>"",""<div class = centerbox><div class = digit-span-text>9</div></div>"",""<div class = centerbox><div class = digit-span-text>2</div></div>"",""<div class = centerbox><div class = digit-span-text>3</div></div>"",""<div class = centerbox><div class = digit-span-text>4</div></div>"",""<div class = centerbox><div class = digit-span-text>2</div></div>""]","[-1]","none","[1000,1000,1000,1000,1000,1000,1000]","8400","0","test","8,5,9,2,3,4,2","7","","","","",""
"single-stim-button","87","515116","0.0-18.0-2.0","1199","digit-span","true","0","","15499","","","response","","","","","","15499","1000","test","8,5,9,2,3,4,2","7","SubmitButton","15499","2,3,5,9,7,6,4","reverse","false"
"html-keyboard-response","88","516118","0.0-18.0-3.0","1199","digit-span","true","0","","null","<div class = centerbox><div class = center-text>7 Digits</p></div>","null","test_intro","","","","","","","","","","","","","","",""
"poldrack-multi-stim-multi-response","89","525527","0.0-18.0-4.0","1199","digit-span","true","0","","[-1]","","","stim","","[""<div class = centerbox><div class = digit-span-text>4</div></div>"",""<div class = centerbox><div class = digit-span-text>5</div></div>"",""<div class = centerbox><div class = digit-span-text>7</div></div>"",""<div class = centerbox><div class = digit-span-text>9</div></div>"",""<div class = centerbox><div class = digit-span-text>2</div></div>"",""<div class = centerbox><div class = digit-span-text>8</div></div>"",""<div class = centerbox><div class = digit-span-text>1</div></div>""]","[-1]","none","[1000,1000,1000,1000,1000,1000,1000]","8400","0","test","4,5,7,9,2,8,1","7","","","","",""
"single-stim-button","90","546006","0.0-18.0-5.0","1199","digit-span","true","0","","20478","","","response","","","","","","20478","1000","test","4,5,7,9,2,8,1","7","SubmitButton","20478","1,8,2,9,7,5,4","reverse","true"
"html-keyboard-response","91","547010","0.0-19.0-0.0","1199","digit-span","true","0","","null","<div class = centerbox><div class = center-text>8 Digits</p></div>","null","test_intro","","","","","","","","","","","","","","",""
"poldrack-multi-stim-multi-response","92","557616","0.0-19.0-1.0","1199","digit-span","true","0","","[-1]","","","stim","","[""<div class = centerbox><div class = digit-span-text>6</div></div>"",""<div class = centerbox><div class = digit-span-text>9</div></div>"",""<div class = centerbox><div class = digit-span-text>1</div></div>"",""<div class = centerbox><div class = digit-span-text>6</div></div>"",""<div class = centerbox><div class = digit-span-text>3</div></div>"",""<div class = centerbox><div class = digit-span-text>2</div></div>"",""<div class = centerbox><div class = digit-span-text>5</div></div>"",""<div class = centerbox><div class = digit-span-text>8</div></div>""]","[-1]","none","[1000,1000,1000,1000,1000,1000,1000,1000]","9600","0","test","6,9,1,6,3,2,5,8","8","","","","",""
"single-stim-button","93","574602","0.0-19.0-2.0","1199","digit-span","true","0","","16984","","","response","","","","","","16984","1000","test","6,9,1,6,3,2,5,8","8","SubmitButton","16984","8,5,3,7,6,9,2,6","reverse","false"
"html-keyboard-response","94","575606","0.0-19.0-3.0","1199","digit-span","true","0","","null","<div class = centerbox><div class = center-text>8 Digits</p></div>","null","test_intro","","","","","","","","","","","","","","",""
"poldrack-multi-stim-multi-response","95","586211","0.0-19.0-4.0","1199","digit-span","true","0","","[-1]","","","stim","","[""<div class = centerbox><div class = digit-span-text>3</div></div>"",""<div class = centerbox><div class = digit-span-text>1</div></div>"",""<div class = centerbox><div class = digit-span-text>7</div></div>"",""<div class = centerbox><div class = digit-span-text>9</div></div>"",""<div class = centerbox><div class = digit-span-text>5</div></div>"",""<div class = centerbox><div class = digit-span-text>4</div></div>"",""<div class = centerbox><div class = digit-span-text>8</div></div>"",""<div class = centerbox><div class = digit-span-text>2</div></div>""]","[-1]","none","[1000,1000,1000,1000,1000,1000,1000,1000]","9600","0","test","3,1,7,9,5,4,8,2","8","","","","",""
"single-stim-button","96","624934","0.0-19.0-5.0","1199","digit-span","true","0","","38721","","","response","","","","","","38721","1000","test","3,1,7,9,5,4,8,2","8","SubmitButton","38721","3,8,2,4,6,7,2,9","reverse","false"
"image-keyboard-response","97","627135","0.0-20.0","1199","digit-span","true","0","","2200","img/trophy2.jpeg","13","end","","","","","","","","","","","","","","",""
