"trial_type","trial_index","time_elapsed","internal_node_id","subject","exp_id","full_screen","focus_shifts","success","rt","stimulus","key_press","trial_id","view_history","stimuli","key_presses","possible_responses","stim_durations","block_duration","timing_post_trial","exp_stage","sequence","num_digits","mouse_click","stim_duration","response","condition","correct"
"pavlovia","0","1415","0.0-0.0","1004","digit-span","true","0","","","","","","","","","","","","","","","","","","","",""
"fullscreen","1","10824","0.0-1.0","1004","digit-span","true","0","true","","","","","","","","","","","","","","","","","","",""
"html-keyboard-response","2","19239","0.0-2.0-0.0","1004","digit-span","true","0","","8410.844999947585","<div class = centerbox><p class = center-block-text>Welcome to the number game! It will take less than 5 minutes. Press <strong>""Enter/Return""</strong> to begin.</p></div>","13","instruction","","","","","","","","","","","","","","",""
"instructions","3","31205","0.0-2.0-1.0","1004","digit-span","true","0","","11965.069999918342","","","instruction","[{""page_index"":0,""viewing_time"":11964.745000004768}]","","","","","","","","","","","","","",""
"instructions","4","43916","0.0-2.0-2.0","1004","digit-span","true","0","","11710.200000088662","","","instruction","[{""page_index"":0,""viewing_time"":11709.915000014007}]","","","","","","","","","","","","","",""
"html-keyboard-response","5","45923","0.0-3.0-0.0","1004","digit-span","true","0","","null","<div class = centerbox><div class = center-text>2 Digits</p></div>","null","test_intro","","","","","","","","","","","","","","",""
"poldrack-multi-stim-multi-response","6","49336","0.0-3.0-1.0","1004","digit-span","true","0","","[-1]","","","stim","","[""<div class = centerbox><div class = digit-span-text>2</div></div>"",""<div class = centerbox><div class = digit-span-text>9</div></div>""]","[-1]","none","[1000,1000]","2400","0","test","2,9","2","","","","",""
"single-stim-button","7","54194","0.0-3.0-2.0","1004","digit-span","true","0","","4855","","","response","","","","","","4855","1000","test","2,9","2","SubmitButton","4855","2,9","forward","true"
"html-keyboard-response","8","55205","0.0-3.0-3.0","1004","digit-span","true","0","","null","<div class = centerbox><div class = center-text>2 Digits</p></div>","null","test_intro","","","","","","","","","","","","","","",""
"poldrack-multi-stim-multi-response","9","58611","0.0-3.0-4.0","1004","digit-span","true","0","","[-1]","","","stim","","[""<div class = centerbox><div class = digit-span-text>4</div></div>"",""<div class = centerbox><div class = digit-span-text>6</div></div>""]","[-1]","none","[1000,1000]","2400","0","test","4,6","2","","","","",""
"single-stim-button","10","65670","0.0-3.0-5.0","1004","digit-span","true","0","","7057","","","response","","","","","","7057","1000","test","4,6","2","SubmitButton","7057","4,6","forward","true"
"html-keyboard-response","11","66673","0.0-4.0-0.0","1004","digit-span","true","0","","null","<div class = centerbox><div class = center-text>3 Digits</p></div>","null","test_intro","","","","","","","","","","","","","","",""
"poldrack-multi-stim-multi-response","12","71279","0.0-4.0-1.0","1004","digit-span","true","0","","[-1]","","","stim","","[""<div class = centerbox><div class = digit-span-text>3</div></div>"",""<div class = centerbox><div class = digit-span-text>8</div></div>"",""<div class = centerbox><div class = digit-span-text>6</div></div>""]","[-1]","none","[1000,1000,1000]","3600","0","test","3,8,6","3","","","","",""
"single-stim-button","13","83376","0.0-4.0-2.0","1004","digit-span","true","0","","12096","","","response","","","","","","12096","1000","test","3,8,6","3","SubmitButton","12096","3,8,6","forward","true"
"html-keyboard-response","14","84378","0.0-4.0-3.0","1004","digit-span","true","0","","null","<div class = centerbox><div class = center-text>3 Digits</p></div>","null","test_intro","","","","","","","","","","","","","","",""
"poldrack-multi-stim-multi-response","15","88984","0.0-4.0-4.0","1004","digit-span","true","0","","[-1]","","","stim","","[""<div class = centerbox><div class = digit-span-text>6</div></div>"",""<div class = centerbox><div class = digit-span-text>1</div></div>"",""<div class = centerbox><div class = digit-span-text>2</div></div>""]","[-1]","none","[1000,1000,1000]","3600","0","test","6,1,2","3","","","","",""
"single-stim-button","16","94621","0.0-4.0-5.0","1004","digit-span","true","0","","5636","","","response","","","","","","5636","1000","test","6,1,2","3","SubmitButton","5636","6,1,2","forward","true"
"html-keyboard-response","17","95624","0.0-5.0-0.0","1004","digit-span","true","0","","null","<div class = centerbox><div class = center-text>4 Digits</p></div>","null","test_intro","","","","","","","","","","","","","","",""
"poldrack-multi-stim-multi-response","18","101431","0.0-5.0-1.0","1004","digit-span","true","0","","[-1]","","","stim","","[""<div class = centerbox><div class = digit-span-text>3</div></div>"",""<div class = centerbox><div class = digit-span-text>4</div></div>"",""<div class = centerbox><div class = digit-span-text>1</div></div>"",""<div class = centerbox><div class = digit-span-text>7</div></div>""]","[-1]","none","[1000,1000,1000,1000]","4800","0","test","3,4,1,7","4","","","","",""
"single-stim-button","19","106546","0.0-5.0-2.0","1004","digit-span","true","0","","5112","","","response","","","","","","5112","1000","test","3,4,1,7","4","SubmitButton","5112","3,4,1,7","forward","true"
"html-keyboard-response","20","107548","0.0-5.0-3.0","1004","digit-span","true","0","","null","<div class = centerbox><div class = center-text>4 Digits</p></div>","null","test_intro","","","","","","","","","","","","","","",""
"poldrack-multi-stim-multi-response","21","113353","0.0-5.0-4.0","1004","digit-span","true","0","","[-1]","","","stim","","[""<div class = centerbox><div class = digit-span-text>6</div></div>"",""<div class = centerbox><div class = digit-span-text>1</div></div>"",""<div class = centerbox><div class = digit-span-text>5</div></div>"",""<div class = centerbox><div class = digit-span-text>8</div></div>""]","[-1]","none","[1000,1000,1000,1000]","4800","0","test","6,1,5,8","4","","","","",""
"single-stim-button","22","119792","0.0-5.0-5.0","1004","digit-span","true","0","","6436","","","response","","","","","","6436","1000","test","6,1,5,8","4","SubmitButton","6436","6,1,5,8","forward","true"
"html-keyboard-response","23","120795","0.0-6.0-0.0","1004","digit-span","true","0","","null","<div class = centerbox><div class = center-text>5 Digits</p></div>","null","test_intro","","","","","","","","","","","","","","",""
"poldrack-multi-stim-multi-response","24","127801","0.0-6.0-1.0","1004","digit-span","true","0","","[-1]","","","stim","","[""<div class = centerbox><div class = digit-span-text>8</div></div>"",""<div class = centerbox><div class = digit-span-text>4</div></div>"",""<div class = centerbox><div class = digit-span-text>2</div></div>"",""<div class = centerbox><div class = digit-span-text>3</div></div>"",""<div class = centerbox><div class = digit-span-text>9</div></div>""]","[-1]","none","[1000,1000,1000,1000,1000]","6000","0","test","8,4,2,3,9","5","","","","",""
"single-stim-button","25","135350","0.0-6.0-2.0","1004","digit-span","true","0","","7546","","","response","","","","","","7546","1000","test","8,4,2,3,9","5","SubmitButton","7546","8,4,2,3,9","forward","true"
"html-keyboard-response","26","136352","0.0-6.0-3.0","1004","digit-span","true","0","","null","<div class = centerbox><div class = center-text>5 Digits</p></div>","null","test_intro","","","","","","","","","","","","","","",""
"poldrack-multi-stim-multi-response","27","143356","0.0-6.0-4.0","1004","digit-span","true","0","","[-1]","","","stim","","[""<div class = centerbox><div class = digit-span-text>5</div></div>"",""<div class = centerbox><div class = digit-span-text>2</div></div>"",""<div class = centerbox><div class = digit-span-text>1</div></div>"",""<div class = centerbox><div class = digit-span-text>8</div></div>"",""<div class = centerbox><div class = digit-span-text>6</div></div>""]","[-1]","none","[1000,1000,1000,1000,1000]","6000","0","test","5,2,1,8,6","5","","","","",""
"single-stim-button","28","151007","0.0-6.0-5.0","1004","digit-span","true","0","","7648","","","response","","","","","","7648","1000","test","5,2,1,8,6","5","SubmitButton","7648","5,2,1,8,6","forward","true"
"html-keyboard-response","29","152009","0.0-7.0-0.0","1004","digit-span","true","0","","null","<div class = centerbox><div class = center-text>6 Digits</p></div>","null","test_intro","","","","","","","","","","","","","","",""
"poldrack-multi-stim-multi-response","30","160221","0.0-7.0-1.0","1004","digit-span","true","0","","[-1]","","","stim","","[""<div class = centerbox><div class = digit-span-text>3</div></div>"",""<div class = centerbox><div class = digit-span-text>8</div></div>"",""<div class = centerbox><div class = digit-span-text>9</div></div>"",""<div class = centerbox><div class = digit-span-text>1</div></div>"",""<div class = centerbox><div class = digit-span-text>7</div></div>"",""<div class = centerbox><div class = digit-span-text>4</div></div>""]","[-1]","none","[1000,1000,1000,1000,1000,1000]","7200","0","test","3,8,9,1,7,4","6","","","","",""
"single-stim-button","31","169306","0.0-7.0-2.0","1004","digit-span","true","0","","9083","","","response","","","","","","9083","1000","test","3,8,9,1,7,4","6","SubmitButton","9083","3,8,9,1,7,4","forward","true"
"html-keyboard-response","32","170309","0.0-7.0-3.0","1004","digit-span","true","0","","null","<div class = centerbox><div class = center-text>6 Digits</p></div>","null","test_intro","","","","","","","","","","","","","","",""
"poldrack-multi-stim-multi-response","33","178515","0.0-7.0-4.0","1004","digit-span","true","0","","[-1]","","","stim","","[""<div class = centerbox><div class = digit-span-text>7</div></div>"",""<div class = centerbox><div class = digit-span-text>9</div></div>"",""<div class = centerbox><div class = digit-span-text>6</div></div>"",""<div class = centerbox><div class = digit-span-text>4</div></div>"",""<div class = centerbox><div class = digit-span-text>8</div></div>"",""<div class = centerbox><div class = digit-span-text>3</div></div>""]","[-1]","none","[1000,1000,1000,1000,1000,1000]","7200","0","test","7,9,6,4,8,3","6","","","","",""
"single-stim-button","34","189011","0.0-7.0-5.0","1004","digit-span","true","0","","10494","","","response","","","","","","10494","1000","test","7,9,6,4,8,3","6","SubmitButton","10494","7,9,6,4,8,3","forward","true"
"html-keyboard-response","35","190013","0.0-8.0-0.0","1004","digit-span","true","0","","null","<div class = centerbox><div class = center-text>7 Digits</p></div>","null","test_intro","","","","","","","","","","","","","","",""
"poldrack-multi-stim-multi-response","36","199419","0.0-8.0-1.0","1004","digit-span","true","0","","[-1]","","","stim","","[""<div class = centerbox><div class = digit-span-text>5</div></div>"",""<div class = centerbox><div class = digit-span-text>1</div></div>"",""<div class = centerbox><div class = digit-span-text>7</div></div>"",""<div class = centerbox><div class = digit-span-text>4</div></div>"",""<div class = centerbox><div class = digit-span-text>2</div></div>"",""<div class = centerbox><div class = digit-span-text>3</div></div>"",""<div class = centerbox><div class = digit-span-text>8</div></div>""]","[-1]","none","[1000,1000,1000,1000,1000,1000,1000]","8400","0","test","5,1,7,4,2,3,8","7","","","","",""
"single-stim-button","37","212487","0.0-8.0-2.0","1004","digit-span","true","0","","13065","","","response","","","","","","13065","1000","test","5,1,7,4,2,3,8","7","SubmitButton","13065","5,1,7,4,2,3,8","forward","true"
"html-keyboard-response","38","213496","0.0-8.0-3.0","1004","digit-span","true","0","","null","<div class = centerbox><div class = center-text>7 Digits</p></div>","null","test_intro","","","","","","","","","","","","","","",""
"poldrack-multi-stim-multi-response","39","222902","0.0-8.0-4.0","1004","digit-span","true","0","","[-1]","","","stim","","[""<div class = centerbox><div class = digit-span-text>9</div></div>"",""<div class = centerbox><div class = digit-span-text>8</div></div>"",""<div class = centerbox><div class = digit-span-text>5</div></div>"",""<div class = centerbox><div class = digit-span-text>2</div></div>"",""<div class = centerbox><div class = digit-span-text>1</div></div>"",""<div class = centerbox><div class = digit-span-text>6</div></div>"",""<div class = centerbox><div class = digit-span-text>3</div></div>""]","[-1]","none","[1000,1000,1000,1000,1000,1000,1000]","8400","0","test","9,8,5,2,1,6,3","7","","","","",""
"single-stim-button","40","244325","0.0-8.0-5.0","1004","digit-span","true","0","","21421","","","response","","","","","","21421","1000","test","9,8,5,2,1,6,3","7","SubmitButton","21421","9,8,5,2,1,6,3","forward","true"
"html-keyboard-response","41","245327","0.0-9.0-0.0","1004","digit-span","true","0","","null","<div class = centerbox><div class = center-text>8 Digits</p></div>","null","test_intro","","","","","","","","","","","","","","",""
"poldrack-multi-stim-multi-response","42","255932","0.0-9.0-1.0","1004","digit-span","true","0","","[-1]","","","stim","","[""<div class = centerbox><div class = digit-span-text>1</div></div>"",""<div class = centerbox><div class = digit-span-text>6</div></div>"",""<div class = centerbox><div class = digit-span-text>4</div></div>"",""<div class = centerbox><div class = digit-span-text>5</div></div>"",""<div class = centerbox><div class = digit-span-text>9</div></div>"",""<div class = centerbox><div class = digit-span-text>7</div></div>"",""<div class = centerbox><div class = digit-span-text>6</div></div>"",""<div class = centerbox><div class = digit-span-text>3</div></div>""]","[-1]","none","[1000,1000,1000,1000,1000,1000,1000,1000]","9600","0","test","1,6,4,5,9,7,6,3","8","","","","",""
"single-stim-button","43","277750","0.0-9.0-2.0","1004","digit-span","true","0","","21814","","","response","","","","","","21814","1000","test","1,6,4,5,9,7,6,3","8","SubmitButton","21814","1,6,4,5,9,7,6,3","forward","true"
"html-keyboard-response","44","278752","0.0-9.0-3.0","1004","digit-span","true","0","","null","<div class = centerbox><div class = center-text>8 Digits</p></div>","null","test_intro","","","","","","","","","","","","","","",""
"poldrack-multi-stim-multi-response","45","289358","0.0-9.0-4.0","1004","digit-span","true","0","","[-1]","","","stim","","[""<div class = centerbox><div class = digit-span-text>2</div></div>"",""<div class = centerbox><div class = digit-span-text>9</div></div>"",""<div class = centerbox><div class = digit-span-text>7</div></div>"",""<div class = centerbox><div class = digit-span-text>6</div></div>"",""<div class = centerbox><div class = digit-span-text>3</div></div>"",""<div class = centerbox><div class = digit-span-text>1</div></div>"",""<div class = centerbox><div class = digit-span-text>5</div></div>"",""<div class = centerbox><div class = digit-span-text>4</div></div>""]","[-1]","none","[1000,1000,1000,1000,1000,1000,1000,1000]","9600","0","test","2,9,7,6,3,1,5,4","8","","","","",""
"single-stim-button","46","309011","0.0-9.0-5.0","1004","digit-span","true","0","","19651","","","response","","","","","","19651","1000","test","2,9,7,6,3,1,5,4","8","SubmitButton","19651","2,9,7,6,3,1,5,4","forward","true"
"html-keyboard-response","47","310013","0.0-10.0-0.0","1004","digit-span","true","0","","null","<div class = centerbox><div class = center-text>9 Digits</p></div>","null","test_intro","","","","","","","","","","","","","","",""
"poldrack-multi-stim-multi-response","48","321817","0.0-10.0-1.0","1004","digit-span","true","0","","[-1]","","","stim","","[""<div class = centerbox><div class = digit-span-text>5</div></div>"",""<div class = centerbox><div class = digit-span-text>3</div></div>"",""<div class = centerbox><div class = digit-span-text>8</div></div>"",""<div class = centerbox><div class = digit-span-text>7</div></div>"",""<div class = centerbox><div class = digit-span-text>1</div></div>"",""<div class = centerbox><div class = digit-span-text>2</div></div>"",""<div class = centerbox><div class = digit-span-text>4</div></div>"",""<div class = centerbox><div class = digit-span-text>6</div></div>"",""<div class = centerbox><div class = digit-span-text>9</div></div>""]","[-1]","none","[1000,1000,1000,1000,1000,1000,1000,1000,1000]","10800","0","test","5,3,8,7,1,2,4,6,9","9","","","","",""
"single-stim-button","49","341131","0.0-10.0-2.0","1004","digit-span","true","0","","19311","","","response","","","","","","19311","1000","test","5,3,8,7,1,2,4,6,9","9","SubmitButton","19311","5,3,8,7,1,2,4,6,9","forward","true"
"html-keyboard-response","50","342133","0.0-10.0-3.0","1004","digit-span","true","0","","null","<div class = centerbox><div class = center-text>9 Digits</p></div>","null","test_intro","","","","","","","","","","","","","","",""
"poldrack-multi-stim-multi-response","51","353939","0.0-10.0-4.0","1004","digit-span","true","0","","[-1]","","","stim","","[""<div class = centerbox><div class = digit-span-text>4</div></div>"",""<div class = centerbox><div class = digit-span-text>2</div></div>"",""<div class = centerbox><div class = digit-span-text>6</div></div>"",""<div class = centerbox><div class = digit-span-text>9</div></div>"",""<div class = centerbox><div class = digit-span-text>1</div></div>"",""<div class = centerbox><div class = digit-span-text>7</div></div>"",""<div class = centerbox><div class = digit-span-text>8</div></div>"",""<div class = centerbox><div class = digit-span-text>3</div></div>"",""<div class = centerbox><div class = digit-span-text>5</div></div>""]","[-1]","none","[1000,1000,1000,1000,1000,1000,1000,1000,1000]","10800","0","test","4,2,6,9,1,7,8,3,5","9","","","","",""
"single-stim-button","52","375916","0.0-10.0-5.0","1004","digit-span","true","0","","21975","","","response","","","","","","21975","1000","test","4,2,6,9,1,7,8,3,5","9","SubmitButton","21975","4,2,6,9,1,7,8,3,5","forward","true"
"html-keyboard-response","53","387159","0.0-11.0","1004","digit-span","true","0","","11242.1350000659","<div class = centerbox><p class = block-text>Now, you will see some numbers, but this time you will enter them <strong>backward</strong>.<br><br>For example, you see <strong>“1—5”</strong>, and you will enter <strong>“5—1”</strong>.<br><br><br>Press <strong>""Enter/Return""</strong> to begin.</p></div>","13","start_reverse","","","","","","","","","","","","","","",""
"html-keyboard-response","54","388162","0.0-12.0-0.0","1004","digit-span","true","0","","null","<div class = centerbox><div class = center-text>2 Digits</p></div>","null","test_intro","","","","","","","","","","","","","","",""
"poldrack-multi-stim-multi-response","55","391568","0.0-12.0-1.0","1004","digit-span","true","0","","[-1]","","","stim","","[""<div class = centerbox><div class = digit-span-text>8</div></div>"",""<div class = centerbox><div class = digit-span-text>2</div></div>""]","[-1]","none","[1000,1000]","2400","0","test","8,2","2","","","","",""
"single-stim-button","56","391857","0.0-12.0-2.0","1004","digit-span","true","0","","288","","","response","","","","","","288","1000","test","8,2","2","SubmitButton","288","","practice","false"
"html-keyboard-response","57","401860","0.0-12.0-3.0","1004","digit-span","true","0","","null","<div class = centerbox><div class = center-block-text><span style=""color:red"">No, you should enter ""2—8"".<br><br>You saw ""8—2"", so to enter it <strong>backward</strong>, you would press ""2—8"".</span></div></div>","null","feedback","","","","","","","","","","","","","","",""
"html-keyboard-response","58","402864","0.0-12.0-4.0","1004","digit-span","true","0","","null","<div class = centerbox><div class = center-text>2 Digits</p></div>","null","test_intro","","","","","","","","","","","","","","",""
"poldrack-multi-stim-multi-response","59","406269","0.0-12.0-5.0","1004","digit-span","true","0","","[-1]","","","stim","","[""<div class = centerbox><div class = digit-span-text>5</div></div>"",""<div class = centerbox><div class = digit-span-text>6</div></div>""]","[-1]","none","[1000,1000]","2400","0","test","5,6","2","","","","",""
"single-stim-button","60","410545","0.0-12.0-6.0","1004","digit-span","true","0","","4274","","","response","","","","","","4274","1000","test","5,6","2","SubmitButton","4274","6,5","practice","true"
"html-keyboard-response","61","411547","0.0-13.0-0.0","1004","digit-span","true","0","","null","<div class = centerbox><div class = center-text>2 Digits</p></div>","null","test_intro","","","","","","","","","","","","","","",""
"poldrack-multi-stim-multi-response","62","414953","0.0-13.0-1.0","1004","digit-span","true","0","","[-1]","","","stim","","[""<div class = centerbox><div class = digit-span-text>2</div></div>"",""<div class = centerbox><div class = digit-span-text>5</div></div>""]","[-1]","none","[1000,1000]","2400","0","test","2,5","2","","","","",""
"single-stim-button","63","419105","0.0-13.0-2.0","1004","digit-span","true","0","","4150","","","response","","","","","","4150","1000","test","2,5","2","SubmitButton","4150","5,2","reverse","true"
"html-keyboard-response","64","420107","0.0-13.0-3.0","1004","digit-span","true","0","","null","<div class = centerbox><div class = center-text>2 Digits</p></div>","null","test_intro","","","","","","","","","","","","","","",""
"poldrack-multi-stim-multi-response","65","423511","0.0-13.0-4.0","1004","digit-span","true","0","","[-1]","","","stim","","[""<div class = centerbox><div class = digit-span-text>6</div></div>"",""<div class = centerbox><div class = digit-span-text>3</div></div>""]","[-1]","none","[1000,1000]","2400","0","test","6,3","2","","","","",""
"single-stim-button","66","428811","0.0-13.0-5.0","1004","digit-span","true","0","","5297","","","response","","","","","","5297","1000","test","6,3","2","SubmitButton","5297","3,6","reverse","true"
"html-keyboard-response","67","429812","0.0-14.0-0.0","1004","digit-span","true","0","","null","<div class = centerbox><div class = center-text>3 Digits</p></div>","null","test_intro","","","","","","","","","","","","","","",""
"poldrack-multi-stim-multi-response","68","434416","0.0-14.0-1.0","1004","digit-span","true","0","","[-1]","","","stim","","[""<div class = centerbox><div class = digit-span-text>5</div></div>"",""<div class = centerbox><div class = digit-span-text>7</div></div>"",""<div class = centerbox><div class = digit-span-text>4</div></div>""]","[-1]","none","[1000,1000,1000]","3600","0","test","5,7,4","3","","","","",""
"single-stim-button","69","443806","0.0-14.0-2.0","1004","digit-span","true","0","","9388","","","response","","","","","","9388","1000","test","5,7,4","3","SubmitButton","9388","4,7,5","reverse","true"
"html-keyboard-response","70","444808","0.0-14.0-3.0","1004","digit-span","true","0","","null","<div class = centerbox><div class = center-text>3 Digits</p></div>","null","test_intro","","","","","","","","","","","","","","",""
"poldrack-multi-stim-multi-response","71","449412","0.0-14.0-4.0","1004","digit-span","true","0","","[-1]","","","stim","","[""<div class = centerbox><div class = digit-span-text>2</div></div>"",""<div class = centerbox><div class = digit-span-text>5</div></div>"",""<div class = centerbox><div class = digit-span-text>9</div></div>""]","[-1]","none","[1000,1000,1000]","3600","0","test","2,5,9","3","","","","",""
"single-stim-button","72","468970","0.0-14.0-5.0","1004","digit-span","true","0","","19556","","","response","","","","","","19556","1000","test","2,5,9","3","SubmitButton","19556","9,5,2","reverse","true"
"html-keyboard-response","73","469974","0.0-15.0-0.0","1004","digit-span","true","0","","null","<div class = centerbox><div class = center-text>4 Digits</p></div>","null","test_intro","","","","","","","","","","","","","","",""
"poldrack-multi-stim-multi-response","74","475781","0.0-15.0-1.0","1004","digit-span","true","0","","[-1]","","","stim","","[""<div class = centerbox><div class = digit-span-text>7</div></div>"",""<div class = centerbox><div class = digit-span-text>2</div></div>"",""<div class = centerbox><div class = digit-span-text>9</div></div>"",""<div class = centerbox><div class = digit-span-text>6</div></div>""]","[-1]","none","[1000,1000,1000,1000]","4800","0","test","7,2,9,6","4","","","","",""
"single-stim-button","75","488159","0.0-15.0-2.0","1004","digit-span","true","0","","12375","","","response","","","","","","12375","1000","test","7,2,9,6","4","SubmitButton","12375","6,9,2,7","reverse","true"
"html-keyboard-response","76","489161","0.0-15.0-3.0","1004","digit-span","true","0","","null","<div class = centerbox><div class = center-text>4 Digits</p></div>","null","test_intro","","","","","","","","","","","","","","",""
"poldrack-multi-stim-multi-response","77","494966","0.0-15.0-4.0","1004","digit-span","true","0","","[-1]","","","stim","","[""<div class = centerbox><div class = digit-span-text>8</div></div>"",""<div class = centerbox><div class = digit-span-text>4</div></div>"",""<div class = centerbox><div class = digit-span-text>9</div></div>"",""<div class = centerbox><div class = digit-span-text>3</div></div>""]","[-1]","none","[1000,1000,1000,1000]","4800","0","test","8,4,9,3","4","","","","",""
"single-stim-button","78","506887","0.0-15.0-5.0","1004","digit-span","true","0","","11918","","","response","","","","","","11918","1000","test","8,4,9,3","4","SubmitButton","11918","3,9,4,8","reverse","true"
"html-keyboard-response","79","507889","0.0-16.0-0.0","1004","digit-span","true","0","","null","<div class = centerbox><div class = center-text>5 Digits</p></div>","null","test_intro","","","","","","","","","","","","","","",""
"poldrack-multi-stim-multi-response","80","514895","0.0-16.0-1.0","1004","digit-span","true","0","","[-1]","","","stim","","[""<div class = centerbox><div class = digit-span-text>4</div></div>"",""<div class = centerbox><div class = digit-span-text>1</div></div>"",""<div class = centerbox><div class = digit-span-text>3</div></div>"",""<div class = centerbox><div class = digit-span-text>5</div></div>"",""<div class = centerbox><div class = digit-span-text>7</div></div>""]","[-1]","none","[1000,1000,1000,1000,1000]","6000","0","test","4,1,3,5,7","5","","","","",""
"single-stim-button","81","536137","0.0-16.0-2.0","1004","digit-span","true","0","","21240","","","response","","","","","","21240","1000","test","4,1,3,5,7","5","SubmitButton","21240","7,5,3,1,4","reverse","true"
"html-keyboard-response","82","537140","0.0-16.0-3.0","1004","digit-span","true","0","","null","<div class = centerbox><div class = center-text>5 Digits</p></div>","null","test_intro","","","","","","","","","","","","","","",""
"poldrack-multi-stim-multi-response","83","544144","0.0-16.0-4.0","1004","digit-span","true","0","","[-1]","","","stim","","[""<div class = centerbox><div class = digit-span-text>9</div></div>"",""<div class = centerbox><div class = digit-span-text>7</div></div>"",""<div class = centerbox><div class = digit-span-text>8</div></div>"",""<div class = centerbox><div class = digit-span-text>5</div></div>"",""<div class = centerbox><div class = digit-span-text>2</div></div>""]","[-1]","none","[1000,1000,1000,1000,1000]","6000","0","test","9,7,8,5,2","5","","","","",""
"single-stim-button","84","555834","0.0-16.0-5.0","1004","digit-span","true","0","","11687","","","response","","","","","","11687","1000","test","9,7,8,5,2","5","SubmitButton","11687","2,5,8,7,9","reverse","true"
"html-keyboard-response","85","556835","0.0-17.0-0.0","1004","digit-span","true","0","","null","<div class = centerbox><div class = center-text>6 Digits</p></div>","null","test_intro","","","","","","","","","","","","","","",""
"poldrack-multi-stim-multi-response","86","565041","0.0-17.0-1.0","1004","digit-span","true","0","","[-1]","","","stim","","[""<div class = centerbox><div class = digit-span-text>1</div></div>"",""<div class = centerbox><div class = digit-span-text>6</div></div>"",""<div class = centerbox><div class = digit-span-text>5</div></div>"",""<div class = centerbox><div class = digit-span-text>2</div></div>"",""<div class = centerbox><div class = digit-span-text>9</div></div>"",""<div class = centerbox><div class = digit-span-text>8</div></div>""]","[-1]","none","[1000,1000,1000,1000,1000,1000]","7200","0","test","1,6,5,2,9,8","6","","","","",""
"single-stim-button","87","588381","0.0-17.0-2.0","1004","digit-span","true","0","","23339","","","response","","","","","","23339","1000","test","1,6,5,2,9,8","6","SubmitButton","23339","8,9,2,5,6,1","reverse","true"
"html-keyboard-response","88","589383","0.0-17.0-3.0","1004","digit-span","true","0","","null","<div class = centerbox><div class = center-text>6 Digits</p></div>","null","test_intro","","","","","","","","","","","","","","",""
"poldrack-multi-stim-multi-response","89","597588","0.0-17.0-4.0","1004","digit-span","true","0","","[-1]","","","stim","","[""<div class = centerbox><div class = digit-span-text>3</div></div>"",""<div class = centerbox><div class = digit-span-text>6</div></div>"",""<div class = centerbox><div class = digit-span-text>7</div></div>"",""<div class = centerbox><div class = digit-span-text>1</div></div>"",""<div class = centerbox><div class = digit-span-text>9</div></div>"",""<div class = centerbox><div class = digit-span-text>4</div></div>""]","[-1]","none","[1000,1000,1000,1000,1000,1000]","7200","0","test","3,6,7,1,9,4","6","","","","",""
"single-stim-button","90","612856","0.0-17.0-5.0","1004","digit-span","true","0","","15265","","","response","","","","","","15265","1000","test","3,6,7,1,9,4","6","SubmitButton","15265","4,9,1,7,6,3","reverse","true"
"html-keyboard-response","91","613857","0.0-18.0-0.0","1004","digit-span","true","0","","null","<div class = centerbox><div class = center-text>7 Digits</p></div>","null","test_intro","","","","","","","","","","","","","","",""
"poldrack-multi-stim-multi-response","92","623263","0.0-18.0-1.0","1004","digit-span","true","0","","[-1]","","","stim","","[""<div class = centerbox><div class = digit-span-text>8</div></div>"",""<div class = centerbox><div class = digit-span-text>5</div></div>"",""<div class = centerbox><div class = digit-span-text>9</div></div>"",""<div class = centerbox><div class = digit-span-text>2</div></div>"",""<div class = centerbox><div class = digit-span-text>3</div></div>"",""<div class = centerbox><div class = digit-span-text>4</div></div>"",""<div class = centerbox><div class = digit-span-text>2</div></div>""]","[-1]","none","[1000,1000,1000,1000,1000,1000,1000]","8400","0","test","8,5,9,2,3,4,2","7","","","","",""
"single-stim-button","93","652435","0.0-18.0-2.0","1004","digit-span","true","0","","29169","","","response","","","","","","29169","1000","test","8,5,9,2,3,4,2","7","SubmitButton","29169","2,4,3,2,9,5,8","reverse","true"
"html-keyboard-response","94","653438","0.0-18.0-3.0","1004","digit-span","true","0","","null","<div class = centerbox><div class = center-text>7 Digits</p></div>","null","test_intro","","","","","","","","","","","","","","",""
"poldrack-multi-stim-multi-response","95","662843","0.0-18.0-4.0","1004","digit-span","true","0","","[-1]","","","stim","","[""<div class = centerbox><div class = digit-span-text>4</div></div>"",""<div class = centerbox><div class = digit-span-text>5</div></div>"",""<div class = centerbox><div class = digit-span-text>7</div></div>"",""<div class = centerbox><div class = digit-span-text>9</div></div>"",""<div class = centerbox><div class = digit-span-text>2</div></div>"",""<div class = centerbox><div class = digit-span-text>8</div></div>"",""<div class = centerbox><div class = digit-span-text>1</div></div>""]","[-1]","none","[1000,1000,1000,1000,1000,1000,1000]","8400","0","test","4,5,7,9,2,8,1","7","","","","",""
"single-stim-button","96","680305","0.0-18.0-5.0","1004","digit-span","true","0","","17460","","","response","","","","","","17460","1000","test","4,5,7,9,2,8,1","7","SubmitButton","17460","1,8,2,9,7,5,4","reverse","true"
"html-keyboard-response","97","681308","0.0-19.0-0.0","1004","digit-span","true","0","","null","<div class = centerbox><div class = center-text>8 Digits</p></div>","null","test_intro","","","","","","","","","","","","","","",""
"poldrack-multi-stim-multi-response","98","691914","0.0-19.0-1.0","1004","digit-span","true","0","","[-1]","","","stim","","[""<div class = centerbox><div class = digit-span-text>6</div></div>"",""<div class = centerbox><div class = digit-span-text>9</div></div>"",""<div class = centerbox><div class = digit-span-text>1</div></div>"",""<div class = centerbox><div class = digit-span-text>6</div></div>"",""<div class = centerbox><div class = digit-span-text>3</div></div>"",""<div class = centerbox><div class = digit-span-text>2</div></div>"",""<div class = centerbox><div class = digit-span-text>5</div></div>"",""<div class = centerbox><div class = digit-span-text>8</div></div>""]","[-1]","none","[1000,1000,1000,1000,1000,1000,1000,1000]","9600","0","test","6,9,1,6,3,2,5,8","8","","","","",""
"single-stim-button","99","720784","0.0-19.0-2.0","1004","digit-span","true","0","","28861","","","response","","","","","","28861","1000","test","6,9,1,6,3,2,5,8","8","SubmitButton","28861","8,5,2,6,1,9,6","reverse","false"
"html-keyboard-response","100","721786","0.0-19.0-3.0","1004","digit-span","true","0","","null","<div class = centerbox><div class = center-text>8 Digits</p></div>","null","test_intro","","","","","","","","","","","","","","",""
"poldrack-multi-stim-multi-response","101","732391","0.0-19.0-4.0","1004","digit-span","true","0","","[-1]","","","stim","","[""<div class = centerbox><div class = digit-span-text>3</div></div>"",""<div class = centerbox><div class = digit-span-text>1</div></div>"",""<div class = centerbox><div class = digit-span-text>7</div></div>"",""<div class = centerbox><div class = digit-span-text>9</div></div>"",""<div class = centerbox><div class = digit-span-text>5</div></div>"",""<div class = centerbox><div class = digit-span-text>4</div></div>"",""<div class = centerbox><div class = digit-span-text>8</div></div>"",""<div class = centerbox><div class = digit-span-text>2</div></div>""]","[-1]","none","[1000,1000,1000,1000,1000,1000,1000,1000]","9600","0","test","3,1,7,9,5,4,8,2","8","","","","",""
"single-stim-button","102","760848","0.0-19.0-5.0","1004","digit-span","true","0","","28455","","","response","","","","","","28455","1000","test","3,1,7,9,5,4,8,2","8","SubmitButton","28455","2,8,4,5,9,7,1,3","reverse","true"
"image-keyboard-response","103","763275","0.0-20.0","1004","digit-span","true","0","","2425.249999971129","img/trophy2.jpeg","13","end","","","","","","","","","","","","","","",""
