"trial_type","trial_index","time_elapsed","internal_node_id","subject","order","exp_id","full_screen","focus_shifts","success","rt","stimulus","key_press","trial_id","view_history","stimuli","key_presses","possible_responses","stim_durations","block_duration","timing_post_trial","exp_stage","sequence","num_digits","mouse_click","stim_duration","response","condition","correct"
"pavlovia","0","2666","0.0-0.0","2174","2","digit-span","true","0","","","","","","","","","","","","","","","","","","","",""
"fullscreen","1","104572","0.0-1.0","2174","2","digit-span","true","0","true","","","","","","","","","","","","","","","","","","",""
"html-keyboard-response","2","113067","0.0-2.0-0.0","2174","2","digit-span","true","0","","8493.09999999404","<div class = centerbox><p class = center-block-text>Welcome to the number game! It will take less than 5 minutes. Press <strong>""Enter/Return""</strong> to begin.</p></div>","13","instruction","","","","","","","","","","","","","","",""
"instructions","3","131550","0.0-2.0-1.0","2174","2","digit-span","true","0","","18482.69999998808","","","instruction","[{""page_index"":0,""viewing_time"":18482.29999998212}]","","","","","","","","","","","","","",""
"instructions","4","139661","0.0-2.0-2.0","2174","2","digit-span","true","0","","7108.899999976158","","","instruction","[{""page_index"":0,""viewing_time"":7108.699999988079}]","","","","","","","","","","","","","",""
"html-keyboard-response","5","141665","0.0-3.0-0.0","2174","2","digit-span","true","0","","null","<div class = centerbox><div class = center-text>2 Digits</p></div>","null","test_intro","","","","","","","","","","","","","","",""
"poldrack-multi-stim-multi-response","6","145071","0.0-3.0-1.0","2174","2","digit-span","true","0","","[-1]","","","stim","","[""<div class = centerbox><div class = digit-span-text>2</div></div>"",""<div class = centerbox><div class = digit-span-text>9</div></div>""]","[-1]","none","[1000,1000]","2400","0","test","2,9","2","","","","",""
"single-stim-button","7","150505","0.0-3.0-2.0","2174","2","digit-span","true","0","","5433","","","response","","","","","","5433","1000","test","2,9","2","SubmitButton","5433","2,9","forward","true"
"html-keyboard-response","8","151506","0.0-3.0-3.0","2174","2","digit-span","true","0","","null","<div class = centerbox><div class = center-text>2 Digits</p></div>","null","test_intro","","","","","","","","","","","","","","",""
"poldrack-multi-stim-multi-response","9","154909","0.0-3.0-4.0","2174","2","digit-span","true","0","","[-1]","","","stim","","[""<div class = centerbox><div class = digit-span-text>4</div></div>"",""<div class = centerbox><div class = digit-span-text>6</div></div>""]","[-1]","none","[1000,1000]","2400","0","test","4,6","2","","","","",""
"single-stim-button","10","160058","0.0-3.0-5.0","2174","2","digit-span","true","0","","5148","","","response","","","","","","5148","1000","test","4,6","2","SubmitButton","5148","4,6","forward","true"
"html-keyboard-response","11","161061","0.0-4.0-0.0","2174","2","digit-span","true","0","","null","<div class = centerbox><div class = center-text>3 Digits</p></div>","null","test_intro","","","","","","","","","","","","","","",""
"poldrack-multi-stim-multi-response","12","165665","0.0-4.0-1.0","2174","2","digit-span","true","0","","[-1]","","","stim","","[""<div class = centerbox><div class = digit-span-text>3</div></div>"",""<div class = centerbox><div class = digit-span-text>8</div></div>"",""<div class = centerbox><div class = digit-span-text>6</div></div>""]","[-1]","none","[1000,1000,1000]","3600","0","test","3,8,6","3","","","","",""
"single-stim-button","13","173005","0.0-4.0-2.0","2174","2","digit-span","true","0","","7338","","","response","","","","","","7338","1000","test","3,8,6","3","SubmitButton","7338","3,8,6","forward","true"
"html-keyboard-response","14","174007","0.0-4.0-3.0","2174","2","digit-span","true","0","","null","<div class = centerbox><div class = center-text>3 Digits</p></div>","null","test_intro","","","","","","","","","","","","","","",""
"poldrack-multi-stim-multi-response","15","178609","0.0-4.0-4.0","2174","2","digit-span","true","0","","[-1]","","","stim","","[""<div class = centerbox><div class = digit-span-text>6</div></div>"",""<div class = centerbox><div class = digit-span-text>1</div></div>"",""<div class = centerbox><div class = digit-span-text>2</div></div>""]","[-1]","none","[1000,1000,1000]","3600","0","test","6,1,2","3","","","","",""
"single-stim-button","16","186003","0.0-4.0-5.0","2174","2","digit-span","true","0","","7392","","","response","","","","","","7392","1000","test","6,1,2","3","SubmitButton","7392","6,1,2","forward","true"
"html-keyboard-response","17","187004","0.0-5.0-0.0","2174","2","digit-span","true","0","","null","<div class = centerbox><div class = center-text>4 Digits</p></div>","null","test_intro","","","","","","","","","","","","","","",""
"poldrack-multi-stim-multi-response","18","192808","0.0-5.0-1.0","2174","2","digit-span","true","0","","[-1]","","","stim","","[""<div class = centerbox><div class = digit-span-text>3</div></div>"",""<div class = centerbox><div class = digit-span-text>4</div></div>"",""<div class = centerbox><div class = digit-span-text>1</div></div>"",""<div class = centerbox><div class = digit-span-text>7</div></div>""]","[-1]","none","[1000,1000,1000,1000]","4800","0","test","3,4,1,7","4","","","","",""
"single-stim-button","19","199799","0.0-5.0-2.0","2174","2","digit-span","true","0","","6990","","","response","","","","","","6990","1000","test","3,4,1,7","4","SubmitButton","6990","3,4,1,7","forward","true"
"html-keyboard-response","20","200801","0.0-5.0-3.0","2174","2","digit-span","true","0","","null","<div class = centerbox><div class = center-text>4 Digits</p></div>","null","test_intro","","","","","","","","","","","","","","",""
"poldrack-multi-stim-multi-response","21","206604","0.0-5.0-4.0","2174","2","digit-span","true","0","","[-1]","","","stim","","[""<div class = centerbox><div class = digit-span-text>6</div></div>"",""<div class = centerbox><div class = digit-span-text>1</div></div>"",""<div class = centerbox><div class = digit-span-text>5</div></div>"",""<div class = centerbox><div class = digit-span-text>8</div></div>""]","[-1]","none","[1000,1000,1000,1000]","4800","0","test","6,1,5,8","4","","","","",""
"single-stim-button","22","215227","0.0-5.0-5.0","2174","2","digit-span","true","0","","8622","","","response","","","","","","8622","1000","test","6,1,5,8","4","SubmitButton","8622","6,1,5,8","forward","true"
"html-keyboard-response","23","216229","0.0-6.0-0.0","2174","2","digit-span","true","0","","null","<div class = centerbox><div class = center-text>5 Digits</p></div>","null","test_intro","","","","","","","","","","","","","","",""
"poldrack-multi-stim-multi-response","24","223232","0.0-6.0-1.0","2174","2","digit-span","true","0","","[-1]","","","stim","","[""<div class = centerbox><div class = digit-span-text>8</div></div>"",""<div class = centerbox><div class = digit-span-text>4</div></div>"",""<div class = centerbox><div class = digit-span-text>2</div></div>"",""<div class = centerbox><div class = digit-span-text>3</div></div>"",""<div class = centerbox><div class = digit-span-text>9</div></div>""]","[-1]","none","[1000,1000,1000,1000,1000]","6000","0","test","8,4,2,3,9","5","","","","",""
"single-stim-button","25","232543","0.0-6.0-2.0","2174","2","digit-span","true","0","","9309","","","response","","","","","","9309","1000","test","8,4,2,3,9","5","SubmitButton","9309","8,4,2,3,9","forward","true"
"html-keyboard-response","26","233544","0.0-6.0-3.0","2174","2","digit-span","true","0","","null","<div class = centerbox><div class = center-text>5 Digits</p></div>","null","test_intro","","","","","","","","","","","","","","",""
"poldrack-multi-stim-multi-response","27","240547","0.0-6.0-4.0","2174","2","digit-span","true","0","","[-1]","","","stim","","[""<div class = centerbox><div class = digit-span-text>5</div></div>"",""<div class = centerbox><div class = digit-span-text>2</div></div>"",""<div class = centerbox><div class = digit-span-text>1</div></div>"",""<div class = centerbox><div class = digit-span-text>8</div></div>"",""<div class = centerbox><div class = digit-span-text>6</div></div>""]","[-1]","none","[1000,1000,1000,1000,1000]","6000","0","test","5,2,1,8,6","5","","","","",""
"single-stim-button","28","248555","0.0-6.0-5.0","2174","2","digit-span","true","0","","8007","","","response","","","","","","8007","1000","test","5,2,1,8,6","5","SubmitButton","8007","5,2,1,8,6","forward","true"
"html-keyboard-response","29","249558","0.0-7.0-0.0","2174","2","digit-span","true","0","","null","<div class = centerbox><div class = center-text>6 Digits</p></div>","null","test_intro","","","","","","","","","","","","","","",""
"poldrack-multi-stim-multi-response","30","257760","0.0-7.0-1.0","2174","2","digit-span","true","0","","[-1]","","","stim","","[""<div class = centerbox><div class = digit-span-text>3</div></div>"",""<div class = centerbox><div class = digit-span-text>8</div></div>"",""<div class = centerbox><div class = digit-span-text>9</div></div>"",""<div class = centerbox><div class = digit-span-text>1</div></div>"",""<div class = centerbox><div class = digit-span-text>7</div></div>"",""<div class = centerbox><div class = digit-span-text>4</div></div>""]","[-1]","none","[1000,1000,1000,1000,1000,1000]","7200","0","test","3,8,9,1,7,4","6","","","","",""
"single-stim-button","31","265783","0.0-7.0-2.0","2174","2","digit-span","true","0","","8022","","","response","","","","","","8022","1000","test","3,8,9,1,7,4","6","SubmitButton","8022","3,8,9,1,7,4","forward","true"
"html-keyboard-response","32","266785","0.0-7.0-3.0","2174","2","digit-span","true","0","","null","<div class = centerbox><div class = center-text>6 Digits</p></div>","null","test_intro","","","","","","","","","","","","","","",""
"poldrack-multi-stim-multi-response","33","274987","0.0-7.0-4.0","2174","2","digit-span","true","0","","[-1]","","","stim","","[""<div class = centerbox><div class = digit-span-text>7</div></div>"",""<div class = centerbox><div class = digit-span-text>9</div></div>"",""<div class = centerbox><div class = digit-span-text>6</div></div>"",""<div class = centerbox><div class = digit-span-text>4</div></div>"",""<div class = centerbox><div class = digit-span-text>8</div></div>"",""<div class = centerbox><div class = digit-span-text>3</div></div>""]","[-1]","none","[1000,1000,1000,1000,1000,1000]","7200","0","test","7,9,6,4,8,3","6","","","","",""
"single-stim-button","34","284002","0.0-7.0-5.0","2174","2","digit-span","true","0","","9013","","","response","","","","","","9013","1000","test","7,9,6,4,8,3","6","SubmitButton","9013","7,9,6,4,8,3","forward","true"
"html-keyboard-response","35","285003","0.0-8.0-0.0","2174","2","digit-span","true","0","","null","<div class = centerbox><div class = center-text>7 Digits</p></div>","null","test_intro","","","","","","","","","","","","","","",""
"poldrack-multi-stim-multi-response","36","294405","0.0-8.0-1.0","2174","2","digit-span","true","0","","[-1]","","","stim","","[""<div class = centerbox><div class = digit-span-text>5</div></div>"",""<div class = centerbox><div class = digit-span-text>1</div></div>"",""<div class = centerbox><div class = digit-span-text>7</div></div>"",""<div class = centerbox><div class = digit-span-text>4</div></div>"",""<div class = centerbox><div class = digit-span-text>2</div></div>"",""<div class = centerbox><div class = digit-span-text>3</div></div>"",""<div class = centerbox><div class = digit-span-text>8</div></div>""]","[-1]","none","[1000,1000,1000,1000,1000,1000,1000]","8400","0","test","5,1,7,4,2,3,8","7","","","","",""
"single-stim-button","37","302577","0.0-8.0-2.0","2174","2","digit-span","true","0","","8170","","","response","","","","","","8170","1000","test","5,1,7,4,2,3,8","7","SubmitButton","8170","5,1,7,4,2,3,8","forward","true"
"html-keyboard-response","38","303579","0.0-8.0-3.0","2174","2","digit-span","true","0","","null","<div class = centerbox><div class = center-text>7 Digits</p></div>","null","test_intro","","","","","","","","","","","","","","",""
"poldrack-multi-stim-multi-response","39","312982","0.0-8.0-4.0","2174","2","digit-span","true","0","","[-1]","","","stim","","[""<div class = centerbox><div class = digit-span-text>9</div></div>"",""<div class = centerbox><div class = digit-span-text>8</div></div>"",""<div class = centerbox><div class = digit-span-text>5</div></div>"",""<div class = centerbox><div class = digit-span-text>2</div></div>"",""<div class = centerbox><div class = digit-span-text>1</div></div>"",""<div class = centerbox><div class = digit-span-text>6</div></div>"",""<div class = centerbox><div class = digit-span-text>3</div></div>""]","[-1]","none","[1000,1000,1000,1000,1000,1000,1000]","8400","0","test","9,8,5,2,1,6,3","7","","","","",""
"single-stim-button","40","330564","0.0-8.0-5.0","2174","2","digit-span","true","0","","17582","","","response","","","","","","17582","1000","test","9,8,5,2,1,6,3","7","SubmitButton","17582","5,8,9,2,1,6,3","forward","false"
"html-keyboard-response","41","331566","0.0-9.0-0.0","2174","2","digit-span","true","0","","null","<div class = centerbox><div class = center-text>8 Digits</p></div>","null","test_intro","","","","","","","","","","","","","","",""
"poldrack-multi-stim-multi-response","42","342171","0.0-9.0-1.0","2174","2","digit-span","true","0","","[-1]","","","stim","","[""<div class = centerbox><div class = digit-span-text>1</div></div>"",""<div class = centerbox><div class = digit-span-text>6</div></div>"",""<div class = centerbox><div class = digit-span-text>4</div></div>"",""<div class = centerbox><div class = digit-span-text>5</div></div>"",""<div class = centerbox><div class = digit-span-text>9</div></div>"",""<div class = centerbox><div class = digit-span-text>7</div></div>"",""<div class = centerbox><div class = digit-span-text>6</div></div>"",""<div class = centerbox><div class = digit-span-text>3</div></div>""]","[-1]","none","[1000,1000,1000,1000,1000,1000,1000,1000]","9600","0","test","1,6,4,5,9,7,6,3","8","","","","",""
"single-stim-button","43","356503","0.0-9.0-2.0","2174","2","digit-span","true","0","","14331","","","response","","","","","","14331","1000","test","1,6,4,5,9,7,6,3","8","SubmitButton","14331","1,6,4,5,9,7,1,3","forward","false"
"html-keyboard-response","44","357505","0.0-9.0-3.0","2174","2","digit-span","true","0","","null","<div class = centerbox><div class = center-text>8 Digits</p></div>","null","test_intro","","","","","","","","","","","","","","",""
"poldrack-multi-stim-multi-response","45","368108","0.0-9.0-4.0","2174","2","digit-span","true","0","","[-1]","","","stim","","[""<div class = centerbox><div class = digit-span-text>2</div></div>"",""<div class = centerbox><div class = digit-span-text>9</div></div>"",""<div class = centerbox><div class = digit-span-text>7</div></div>"",""<div class = centerbox><div class = digit-span-text>6</div></div>"",""<div class = centerbox><div class = digit-span-text>3</div></div>"",""<div class = centerbox><div class = digit-span-text>1</div></div>"",""<div class = centerbox><div class = digit-span-text>5</div></div>"",""<div class = centerbox><div class = digit-span-text>4</div></div>""]","[-1]","none","[1000,1000,1000,1000,1000,1000,1000,1000]","9600","0","test","2,9,7,6,3,1,5,4","8","","","","",""
"single-stim-button","46","384947","0.0-9.0-5.0","2174","2","digit-span","true","0","","16837","","","response","","","","","","16837","1000","test","2,9,7,6,3,1,5,4","8","SubmitButton","16837","2,9,7,6,1,2,5,3","forward","false"
"html-keyboard-response","47","402298","0.0-11.0","2174","2","digit-span","true","0","","17349.5","<div class = centerbox><p class = block-text>Now, you will see some numbers, but this time you will enter them <strong>backward</strong>.<br><br>For example, you see <strong>“1—5”</strong>, and you will enter <strong>“5—1”</strong>.<br><br><br>Press <strong>""Enter/Return""</strong> to begin.</p></div>","13","start_reverse","","","","","","","","","","","","","","",""
"html-keyboard-response","48","403298","0.0-12.0-0.0","2174","2","digit-span","true","0","","null","<div class = centerbox><div class = center-text>2 Digits</p></div>","null","test_intro","","","","","","","","","","","","","","",""
"poldrack-multi-stim-multi-response","49","406701","0.0-12.0-1.0","2174","2","digit-span","true","0","","[-1]","","","stim","","[""<div class = centerbox><div class = digit-span-text>8</div></div>"",""<div class = centerbox><div class = digit-span-text>2</div></div>""]","[-1]","none","[1000,1000]","2400","0","test","8,2","2","","","","",""
"single-stim-button","50","410675","0.0-12.0-2.0","2174","2","digit-span","true","0","","3972","","","response","","","","","","3972","1000","test","8,2","2","SubmitButton","3972","2,8","practice","true"
"html-keyboard-response","51","420676","0.0-12.0-3.0","2174","2","digit-span","true","0","","null","<div class = centerbox><div class = center-block-text><span style=""color:green"">Correct!</span></div></div>","null","feedback","","","","","","","","","","","","","","",""
"html-keyboard-response","52","421679","0.0-12.0-4.0","2174","2","digit-span","true","0","","null","<div class = centerbox><div class = center-text>2 Digits</p></div>","null","test_intro","","","","","","","","","","","","","","",""
"poldrack-multi-stim-multi-response","53","425097","0.0-12.0-5.0","2174","2","digit-span","true","0","","[-1]","","","stim","","[""<div class = centerbox><div class = digit-span-text>5</div></div>"",""<div class = centerbox><div class = digit-span-text>6</div></div>""]","[-1]","none","[1000,1000]","2400","0","test","5,6","2","","","","",""
"single-stim-button","54","428182","0.0-12.0-6.0","2174","2","digit-span","true","0","","3084","","","response","","","","","","3084","1000","test","5,6","2","SubmitButton","3084","6,5","practice","true"
"html-keyboard-response","55","429184","0.0-13.0-0.0","2174","2","digit-span","true","0","","null","<div class = centerbox><div class = center-text>2 Digits</p></div>","null","test_intro","","","","","","","","","","","","","","",""
"poldrack-multi-stim-multi-response","56","432586","0.0-13.0-1.0","2174","2","digit-span","true","0","","[-1]","","","stim","","[""<div class = centerbox><div class = digit-span-text>2</div></div>"",""<div class = centerbox><div class = digit-span-text>5</div></div>""]","[-1]","none","[1000,1000]","2400","0","test","2,5","2","","","","",""
"single-stim-button","57","437581","0.0-13.0-2.0","2174","2","digit-span","true","0","","4993","","","response","","","","","","4993","1000","test","2,5","2","SubmitButton","4993","5,2","reverse","true"
"html-keyboard-response","58","438583","0.0-13.0-3.0","2174","2","digit-span","true","0","","null","<div class = centerbox><div class = center-text>2 Digits</p></div>","null","test_intro","","","","","","","","","","","","","","",""
"poldrack-multi-stim-multi-response","59","441987","0.0-13.0-4.0","2174","2","digit-span","true","0","","[-1]","","","stim","","[""<div class = centerbox><div class = digit-span-text>6</div></div>"",""<div class = centerbox><div class = digit-span-text>3</div></div>""]","[-1]","none","[1000,1000]","2400","0","test","6,3","2","","","","",""
"single-stim-button","60","444279","0.0-13.0-5.0","2174","2","digit-span","true","0","","2291","","","response","","","","","","2291","1000","test","6,3","2","SubmitButton","2291","3,6","reverse","true"
"html-keyboard-response","61","445280","0.0-14.0-0.0","2174","2","digit-span","true","0","","null","<div class = centerbox><div class = center-text>3 Digits</p></div>","null","test_intro","","","","","","","","","","","","","","",""
"poldrack-multi-stim-multi-response","62","449884","0.0-14.0-1.0","2174","2","digit-span","true","0","","[-1]","","","stim","","[""<div class = centerbox><div class = digit-span-text>5</div></div>"",""<div class = centerbox><div class = digit-span-text>7</div></div>"",""<div class = centerbox><div class = digit-span-text>4</div></div>""]","[-1]","none","[1000,1000,1000]","3600","0","test","5,7,4","3","","","","",""
"single-stim-button","63","454782","0.0-14.0-2.0","2174","2","digit-span","true","0","","4898","","","response","","","","","","4898","1000","test","5,7,4","3","SubmitButton","4898","4,5,7","reverse","false"
"html-keyboard-response","64","455784","0.0-14.0-3.0","2174","2","digit-span","true","0","","null","<div class = centerbox><div class = center-text>3 Digits</p></div>","null","test_intro","","","","","","","","","","","","","","",""
"poldrack-multi-stim-multi-response","65","460388","0.0-14.0-4.0","2174","2","digit-span","true","0","","[-1]","","","stim","","[""<div class = centerbox><div class = digit-span-text>2</div></div>"",""<div class = centerbox><div class = digit-span-text>5</div></div>"",""<div class = centerbox><div class = digit-span-text>9</div></div>""]","[-1]","none","[1000,1000,1000]","3600","0","test","2,5,9","3","","","","",""
"single-stim-button","66","464694","0.0-14.0-5.0","2174","2","digit-span","true","0","","4305","","","response","","","","","","4305","1000","test","2,5,9","3","SubmitButton","4305","9,5,2","reverse","true"
"html-keyboard-response","67","465696","0.0-15.0-0.0","2174","2","digit-span","true","0","","null","<div class = centerbox><div class = center-text>4 Digits</p></div>","null","test_intro","","","","","","","","","","","","","","",""
"poldrack-multi-stim-multi-response","68","471500","0.0-15.0-1.0","2174","2","digit-span","true","0","","[-1]","","","stim","","[""<div class = centerbox><div class = digit-span-text>7</div></div>"",""<div class = centerbox><div class = digit-span-text>2</div></div>"",""<div class = centerbox><div class = digit-span-text>9</div></div>"",""<div class = centerbox><div class = digit-span-text>6</div></div>""]","[-1]","none","[1000,1000,1000,1000]","4800","0","test","7,2,9,6","4","","","","",""
"single-stim-button","69","479972","0.0-15.0-2.0","2174","2","digit-span","true","0","","8471","","","response","","","","","","8471","1000","test","7,2,9,6","4","SubmitButton","8471","6,9,2,7","reverse","true"
"html-keyboard-response","70","480974","0.0-15.0-3.0","2174","2","digit-span","true","0","","null","<div class = centerbox><div class = center-text>4 Digits</p></div>","null","test_intro","","","","","","","","","","","","","","",""
"poldrack-multi-stim-multi-response","71","486777","0.0-15.0-4.0","2174","2","digit-span","true","0","","[-1]","","","stim","","[""<div class = centerbox><div class = digit-span-text>8</div></div>"",""<div class = centerbox><div class = digit-span-text>4</div></div>"",""<div class = centerbox><div class = digit-span-text>9</div></div>"",""<div class = centerbox><div class = digit-span-text>3</div></div>""]","[-1]","none","[1000,1000,1000,1000]","4800","0","test","8,4,9,3","4","","","","",""
"single-stim-button","72","493122","0.0-15.0-5.0","2174","2","digit-span","true","0","","6344","","","response","","","","","","6344","1000","test","8,4,9,3","4","SubmitButton","6344","3,9,4,8","reverse","true"
"html-keyboard-response","73","494123","0.0-16.0-0.0","2174","2","digit-span","true","0","","null","<div class = centerbox><div class = center-text>5 Digits</p></div>","null","test_intro","","","","","","","","","","","","","","",""
"poldrack-multi-stim-multi-response","74","501127","0.0-16.0-1.0","2174","2","digit-span","true","0","","[-1]","","","stim","","[""<div class = centerbox><div class = digit-span-text>4</div></div>"",""<div class = centerbox><div class = digit-span-text>1</div></div>"",""<div class = centerbox><div class = digit-span-text>3</div></div>"",""<div class = centerbox><div class = digit-span-text>5</div></div>"",""<div class = centerbox><div class = digit-span-text>7</div></div>""]","[-1]","none","[1000,1000,1000,1000,1000]","6000","0","test","4,1,3,5,7","5","","","","",""
"single-stim-button","75","513125","0.0-16.0-2.0","2174","2","digit-span","true","0","","11996","","","response","","","","","","11996","1000","test","4,1,3,5,7","5","SubmitButton","11996","7,5,3,1,4","reverse","true"
"html-keyboard-response","76","514126","0.0-16.0-3.0","2174","2","digit-span","true","0","","null","<div class = centerbox><div class = center-text>5 Digits</p></div>","null","test_intro","","","","","","","","","","","","","","",""
"poldrack-multi-stim-multi-response","77","521130","0.0-16.0-4.0","2174","2","digit-span","true","0","","[-1]","","","stim","","[""<div class = centerbox><div class = digit-span-text>9</div></div>"",""<div class = centerbox><div class = digit-span-text>7</div></div>"",""<div class = centerbox><div class = digit-span-text>8</div></div>"",""<div class = centerbox><div class = digit-span-text>5</div></div>"",""<div class = centerbox><div class = digit-span-text>2</div></div>""]","[-1]","none","[1000,1000,1000,1000,1000]","6000","0","test","9,7,8,5,2","5","","","","",""
"single-stim-button","78","530873","0.0-16.0-5.0","2174","2","digit-span","true","0","","9742","","","response","","","","","","9742","1000","test","9,7,8,5,2","5","SubmitButton","9742","2,5,8,7,9","reverse","true"
"html-keyboard-response","79","531875","0.0-17.0-0.0","2174","2","digit-span","true","0","","null","<div class = centerbox><div class = center-text>6 Digits</p></div>","null","test_intro","","","","","","","","","","","","","","",""
"poldrack-multi-stim-multi-response","80","540079","0.0-17.0-1.0","2174","2","digit-span","true","0","","[-1]","","","stim","","[""<div class = centerbox><div class = digit-span-text>1</div></div>"",""<div class = centerbox><div class = digit-span-text>6</div></div>"",""<div class = centerbox><div class = digit-span-text>5</div></div>"",""<div class = centerbox><div class = digit-span-text>2</div></div>"",""<div class = centerbox><div class = digit-span-text>9</div></div>"",""<div class = centerbox><div class = digit-span-text>8</div></div>""]","[-1]","none","[1000,1000,1000,1000,1000,1000]","7200","0","test","1,6,5,2,9,8","6","","","","",""
"single-stim-button","81","570979","0.0-17.0-2.0","2174","2","digit-span","true","0","","30899","","","response","","","","","","30899","1000","test","1,6,5,2,9,8","6","SubmitButton","30899","8,9,2,5,6,1","reverse","true"
"html-keyboard-response","82","571982","0.0-17.0-3.0","2174","2","digit-span","true","0","","null","<div class = centerbox><div class = center-text>6 Digits</p></div>","null","test_intro","","","","","","","","","","","","","","",""
"poldrack-multi-stim-multi-response","83","580185","0.0-17.0-4.0","2174","2","digit-span","true","0","","[-1]","","","stim","","[""<div class = centerbox><div class = digit-span-text>3</div></div>"",""<div class = centerbox><div class = digit-span-text>6</div></div>"",""<div class = centerbox><div class = digit-span-text>7</div></div>"",""<div class = centerbox><div class = digit-span-text>1</div></div>"",""<div class = centerbox><div class = digit-span-text>9</div></div>"",""<div class = centerbox><div class = digit-span-text>4</div></div>""]","[-1]","none","[1000,1000,1000,1000,1000,1000]","7200","0","test","3,6,7,1,9,4","6","","","","",""
"single-stim-button","84","630564","0.0-17.0-5.0","2174","2","digit-span","true","0","","50377","","","response","","","","","","50377","1000","test","3,6,7,1,9,4","6","SubmitButton","50377","4,9,1,7,6,3","reverse","true"
"html-keyboard-response","85","631565","0.0-18.0-0.0","2174","2","digit-span","true","0","","null","<div class = centerbox><div class = center-text>7 Digits</p></div>","null","test_intro","","","","","","","","","","","","","","",""
"poldrack-multi-stim-multi-response","86","640968","0.0-18.0-1.0","2174","2","digit-span","true","0","","[-1]","","","stim","","[""<div class = centerbox><div class = digit-span-text>8</div></div>"",""<div class = centerbox><div class = digit-span-text>5</div></div>"",""<div class = centerbox><div class = digit-span-text>9</div></div>"",""<div class = centerbox><div class = digit-span-text>2</div></div>"",""<div class = centerbox><div class = digit-span-text>3</div></div>"",""<div class = centerbox><div class = digit-span-text>4</div></div>"",""<div class = centerbox><div class = digit-span-text>2</div></div>""]","[-1]","none","[1000,1000,1000,1000,1000,1000,1000]","8400","0","test","8,5,9,2,3,4,2","7","","","","",""
"single-stim-button","87","677558","0.0-18.0-2.0","2174","2","digit-span","true","0","","36588","","","response","","","","","","36588","1000","test","8,5,9,2,3,4,2","7","SubmitButton","36588","2,4,3,2,9,5,8","reverse","true"
"html-keyboard-response","88","678560","0.0-18.0-3.0","2174","2","digit-span","true","0","","null","<div class = centerbox><div class = center-text>7 Digits</p></div>","null","test_intro","","","","","","","","","","","","","","",""
"poldrack-multi-stim-multi-response","89","687962","0.0-18.0-4.0","2174","2","digit-span","true","0","","[-1]","","","stim","","[""<div class = centerbox><div class = digit-span-text>4</div></div>"",""<div class = centerbox><div class = digit-span-text>5</div></div>"",""<div class = centerbox><div class = digit-span-text>7</div></div>"",""<div class = centerbox><div class = digit-span-text>9</div></div>"",""<div class = centerbox><div class = digit-span-text>2</div></div>"",""<div class = centerbox><div class = digit-span-text>8</div></div>"",""<div class = centerbox><div class = digit-span-text>1</div></div>""]","[-1]","none","[1000,1000,1000,1000,1000,1000,1000]","8400","0","test","4,5,7,9,2,8,1","7","","","","",""
"single-stim-button","90","703536","0.0-18.0-5.0","2174","2","digit-span","true","0","","15573","","","response","","","","","","15573","1000","test","4,5,7,9,2,8,1","7","SubmitButton","15573","1,8,2,9,7,5,4","reverse","true"
"html-keyboard-response","91","704538","0.0-19.0-0.0","2174","2","digit-span","true","0","","null","<div class = centerbox><div class = center-text>8 Digits</p></div>","null","test_intro","","","","","","","","","","","","","","",""
"poldrack-multi-stim-multi-response","92","715140","0.0-19.0-1.0","2174","2","digit-span","true","0","","[-1]","","","stim","","[""<div class = centerbox><div class = digit-span-text>6</div></div>"",""<div class = centerbox><div class = digit-span-text>9</div></div>"",""<div class = centerbox><div class = digit-span-text>1</div></div>"",""<div class = centerbox><div class = digit-span-text>6</div></div>"",""<div class = centerbox><div class = digit-span-text>3</div></div>"",""<div class = centerbox><div class = digit-span-text>2</div></div>"",""<div class = centerbox><div class = digit-span-text>5</div></div>"",""<div class = centerbox><div class = digit-span-text>8</div></div>""]","[-1]","none","[1000,1000,1000,1000,1000,1000,1000,1000]","9600","0","test","6,9,1,6,3,2,5,8","8","","","","",""
"single-stim-button","93","727908","0.0-19.0-2.0","2174","2","digit-span","true","0","","12767","","","response","","","","","","12767","1000","test","6,9,1,6,3,2,5,8","8","SubmitButton","12767","4,1,1,1,1,1,1,1","reverse","false"
"html-keyboard-response","94","728910","0.0-19.0-3.0","2174","2","digit-span","true","0","","null","<div class = centerbox><div class = center-text>8 Digits</p></div>","null","test_intro","","","","","","","","","","","","","","",""
"poldrack-multi-stim-multi-response","95","739513","0.0-19.0-4.0","2174","2","digit-span","true","0","","[-1]","","","stim","","[""<div class = centerbox><div class = digit-span-text>3</div></div>"",""<div class = centerbox><div class = digit-span-text>1</div></div>"",""<div class = centerbox><div class = digit-span-text>7</div></div>"",""<div class = centerbox><div class = digit-span-text>9</div></div>"",""<div class = centerbox><div class = digit-span-text>5</div></div>"",""<div class = centerbox><div class = digit-span-text>4</div></div>"",""<div class = centerbox><div class = digit-span-text>8</div></div>"",""<div class = centerbox><div class = digit-span-text>2</div></div>""]","[-1]","none","[1000,1000,1000,1000,1000,1000,1000,1000]","9600","0","test","3,1,7,9,5,4,8,2","8","","","","",""
"single-stim-button","96","762211","0.0-19.0-5.0","2174","2","digit-span","true","0","","22697","","","response","","","","","","22697","1000","test","3,1,7,9,5,4,8,2","8","SubmitButton","22697","2,8,5,2,3,5,7,9","reverse","false"
"image-keyboard-response","97","767175","0.0-20.0","2174","2","digit-span","true","0","","4963.200000017881","img/trophy2.jpeg","13","end","","","","","","","","","","","","","","",""
