"trial_type","trial_index","time_elapsed","internal_node_id","subject","order","exp_id","full_screen","focus_shifts","success","rt","stimulus","key_press","trial_id","view_history","stimuli","key_presses","possible_responses","stim_durations","block_duration","timing_post_trial","exp_stage","sequence","num_digits","mouse_click","stim_duration","response","condition","correct"
"pavlovia","0","2708","0.0-0.0","1330","2","digit-span","true","0","","","","","","","","","","","","","","","","","","","",""
"fullscreen","1","10983","0.0-1.0","1330","2","digit-span","true","0","true","","","","","","","","","","","","","","","","","","",""
"html-keyboard-response","2","18982","0.0-2.0-0.0","1330","2","digit-span","true","0","","7995.5999999940395","<div class = centerbox><p class = center-block-text>Welcome to the number game! It will take less than 5 minutes. Press <strong>""Enter/Return""</strong> to begin.</p></div>","13","instruction","","","","","","","","","","","","","","",""
"instructions","3","25648","0.0-2.0-1.0","1330","2","digit-span","true","0","","6665.600000023842","","","instruction","[{""page_index"":0,""viewing_time"":6665.200000017881}]","","","","","","","","","","","","","",""
"instructions","4","30361","0.0-2.0-2.0","1330","2","digit-span","true","0","","3710.699999988079","","","instruction","[{""page_index"":0,""viewing_time"":3710.5}]","","","","","","","","","","","","","",""
"html-keyboard-response","5","32366","0.0-3.0-0.0","1330","2","digit-span","true","0","","null","<div class = centerbox><div class = center-text>2 Digits</p></div>","null","test_intro","","","","","","","","","","","","","","",""
"poldrack-multi-stim-multi-response","6","35770","0.0-3.0-1.0","1330","2","digit-span","true","0","","[-1]","","","stim","","[""<div class = centerbox><div class = digit-span-text>2</div></div>"",""<div class = centerbox><div class = digit-span-text>9</div></div>""]","[-1]","none","[1000,1000]","2400","0","test","2,9","2","","","","",""
"single-stim-button","7","39858","0.0-3.0-2.0","1330","2","digit-span","true","0","","4085","","","response","","","","","","4085","1000","test","2,9","2","SubmitButton","4085","2,9","forward","true"
"html-keyboard-response","8","40860","0.0-3.0-3.0","1330","2","digit-span","true","0","","null","<div class = centerbox><div class = center-text>2 Digits</p></div>","null","test_intro","","","","","","","","","","","","","","",""
"poldrack-multi-stim-multi-response","9","44264","0.0-3.0-4.0","1330","2","digit-span","true","0","","[-1]","","","stim","","[""<div class = centerbox><div class = digit-span-text>4</div></div>"",""<div class = centerbox><div class = digit-span-text>6</div></div>""]","[-1]","none","[1000,1000]","2400","0","test","4,6","2","","","","",""
"single-stim-button","10","48566","0.0-3.0-5.0","1330","2","digit-span","true","0","","4301","","","response","","","","","","4301","1000","test","4,6","2","SubmitButton","4301","4,6","forward","true"
"html-keyboard-response","11","49568","0.0-4.0-0.0","1330","2","digit-span","true","0","","null","<div class = centerbox><div class = center-text>3 Digits</p></div>","null","test_intro","","","","","","","","","","","","","","",""
"poldrack-multi-stim-multi-response","12","54172","0.0-4.0-1.0","1330","2","digit-span","true","0","","[-1]","","","stim","","[""<div class = centerbox><div class = digit-span-text>3</div></div>"",""<div class = centerbox><div class = digit-span-text>8</div></div>"",""<div class = centerbox><div class = digit-span-text>6</div></div>""]","[-1]","none","[1000,1000,1000]","3600","0","test","3,8,6","3","","","","",""
"single-stim-button","13","57934","0.0-4.0-2.0","1330","2","digit-span","true","0","","3760","","","response","","","","","","3760","1000","test","3,8,6","3","SubmitButton","3760","3,8,6","forward","true"
"html-keyboard-response","14","58935","0.0-4.0-3.0","1330","2","digit-span","true","0","","null","<div class = centerbox><div class = center-text>3 Digits</p></div>","null","test_intro","","","","","","","","","","","","","","",""
"poldrack-multi-stim-multi-response","15","63538","0.0-4.0-4.0","1330","2","digit-span","true","0","","[-1]","","","stim","","[""<div class = centerbox><div class = digit-span-text>6</div></div>"",""<div class = centerbox><div class = digit-span-text>1</div></div>"",""<div class = centerbox><div class = digit-span-text>2</div></div>""]","[-1]","none","[1000,1000,1000]","3600","0","test","6,1,2","3","","","","",""
"single-stim-button","16","67915","0.0-4.0-5.0","1330","2","digit-span","true","0","","4376","","","response","","","","","","4376","1000","test","6,1,2","3","SubmitButton","4376","6,1,2","forward","true"
"html-keyboard-response","17","68918","0.0-5.0-0.0","1330","2","digit-span","true","0","","null","<div class = centerbox><div class = center-text>4 Digits</p></div>","null","test_intro","","","","","","","","","","","","","","",""
"poldrack-multi-stim-multi-response","18","74721","0.0-5.0-1.0","1330","2","digit-span","true","0","","[-1]","","","stim","","[""<div class = centerbox><div class = digit-span-text>3</div></div>"",""<div class = centerbox><div class = digit-span-text>4</div></div>"",""<div class = centerbox><div class = digit-span-text>1</div></div>"",""<div class = centerbox><div class = digit-span-text>7</div></div>""]","[-1]","none","[1000,1000,1000,1000]","4800","0","test","3,4,1,7","4","","","","",""
"single-stim-button","19","79441","0.0-5.0-2.0","1330","2","digit-span","true","0","","4719","","","response","","","","","","4719","1000","test","3,4,1,7","4","SubmitButton","4719","3,4,1,7","forward","true"
"html-keyboard-response","20","80444","0.0-5.0-3.0","1330","2","digit-span","true","0","","null","<div class = centerbox><div class = center-text>4 Digits</p></div>","null","test_intro","","","","","","","","","","","","","","",""
"poldrack-multi-stim-multi-response","21","86248","0.0-5.0-4.0","1330","2","digit-span","true","0","","[-1]","","","stim","","[""<div class = centerbox><div class = digit-span-text>6</div></div>"",""<div class = centerbox><div class = digit-span-text>1</div></div>"",""<div class = centerbox><div class = digit-span-text>5</div></div>"",""<div class = centerbox><div class = digit-span-text>8</div></div>""]","[-1]","none","[1000,1000,1000,1000]","4800","0","test","6,1,5,8","4","","","","",""
"single-stim-button","22","90897","0.0-5.0-5.0","1330","2","digit-span","true","0","","4647","","","response","","","","","","4647","1000","test","6,1,5,8","4","SubmitButton","4647","6,1,5,8","forward","true"
"html-keyboard-response","23","91899","0.0-6.0-0.0","1330","2","digit-span","true","0","","null","<div class = centerbox><div class = center-text>5 Digits</p></div>","null","test_intro","","","","","","","","","","","","","","",""
"poldrack-multi-stim-multi-response","24","98903","0.0-6.0-1.0","1330","2","digit-span","true","0","","[-1]","","","stim","","[""<div class = centerbox><div class = digit-span-text>8</div></div>"",""<div class = centerbox><div class = digit-span-text>4</div></div>"",""<div class = centerbox><div class = digit-span-text>2</div></div>"",""<div class = centerbox><div class = digit-span-text>3</div></div>"",""<div class = centerbox><div class = digit-span-text>9</div></div>""]","[-1]","none","[1000,1000,1000,1000,1000]","6000","0","test","8,4,2,3,9","5","","","","",""
"single-stim-button","25","105685","0.0-6.0-2.0","1330","2","digit-span","true","0","","6780","","","response","","","","","","6780","1000","test","8,4,2,3,9","5","SubmitButton","6780","8,4,2,3,9","forward","true"
"html-keyboard-response","26","106686","0.0-6.0-3.0","1330","2","digit-span","true","0","","null","<div class = centerbox><div class = center-text>5 Digits</p></div>","null","test_intro","","","","","","","","","","","","","","",""
"poldrack-multi-stim-multi-response","27","113690","0.0-6.0-4.0","1330","2","digit-span","true","0","","[-1]","","","stim","","[""<div class = centerbox><div class = digit-span-text>5</div></div>"",""<div class = centerbox><div class = digit-span-text>2</div></div>"",""<div class = centerbox><div class = digit-span-text>1</div></div>"",""<div class = centerbox><div class = digit-span-text>8</div></div>"",""<div class = centerbox><div class = digit-span-text>6</div></div>""]","[-1]","none","[1000,1000,1000,1000,1000]","6000","0","test","5,2,1,8,6","5","","","","",""
"single-stim-button","28","118489","0.0-6.0-5.0","1330","2","digit-span","true","0","","4798","","","response","","","","","","4798","1000","test","5,2,1,8,6","5","SubmitButton","4798","5,2,1,8,6","forward","true"
"html-keyboard-response","29","119491","0.0-7.0-0.0","1330","2","digit-span","true","0","","null","<div class = centerbox><div class = center-text>6 Digits</p></div>","null","test_intro","","","","","","","","","","","","","","",""
"poldrack-multi-stim-multi-response","30","127707","0.0-7.0-1.0","1330","2","digit-span","true","0","","[-1]","","","stim","","[""<div class = centerbox><div class = digit-span-text>3</div></div>"",""<div class = centerbox><div class = digit-span-text>8</div></div>"",""<div class = centerbox><div class = digit-span-text>9</div></div>"",""<div class = centerbox><div class = digit-span-text>1</div></div>"",""<div class = centerbox><div class = digit-span-text>7</div></div>"",""<div class = centerbox><div class = digit-span-text>4</div></div>""]","[-1]","none","[1000,1000,1000,1000,1000,1000]","7200","0","test","3,8,9,1,7,4","6","","","","",""
"single-stim-button","31","134020","0.0-7.0-2.0","1330","2","digit-span","true","0","","6311","","","response","","","","","","6311","1000","test","3,8,9,1,7,4","6","SubmitButton","6311","3,8,9,1,7,4","forward","true"
"html-keyboard-response","32","135022","0.0-7.0-3.0","1330","2","digit-span","true","0","","null","<div class = centerbox><div class = center-text>6 Digits</p></div>","null","test_intro","","","","","","","","","","","","","","",""
"poldrack-multi-stim-multi-response","33","143225","0.0-7.0-4.0","1330","2","digit-span","true","0","","[-1]","","","stim","","[""<div class = centerbox><div class = digit-span-text>7</div></div>"",""<div class = centerbox><div class = digit-span-text>9</div></div>"",""<div class = centerbox><div class = digit-span-text>6</div></div>"",""<div class = centerbox><div class = digit-span-text>4</div></div>"",""<div class = centerbox><div class = digit-span-text>8</div></div>"",""<div class = centerbox><div class = digit-span-text>3</div></div>""]","[-1]","none","[1000,1000,1000,1000,1000,1000]","7200","0","test","7,9,6,4,8,3","6","","","","",""
"single-stim-button","34","150161","0.0-7.0-5.0","1330","2","digit-span","true","0","","6935","","","response","","","","","","6935","1000","test","7,9,6,4,8,3","6","SubmitButton","6935","7,9,6,4,8,3","forward","true"
"html-keyboard-response","35","151164","0.0-8.0-0.0","1330","2","digit-span","true","0","","null","<div class = centerbox><div class = center-text>7 Digits</p></div>","null","test_intro","","","","","","","","","","","","","","",""
"poldrack-multi-stim-multi-response","36","160567","0.0-8.0-1.0","1330","2","digit-span","true","0","","[-1]","","","stim","","[""<div class = centerbox><div class = digit-span-text>5</div></div>"",""<div class = centerbox><div class = digit-span-text>1</div></div>"",""<div class = centerbox><div class = digit-span-text>7</div></div>"",""<div class = centerbox><div class = digit-span-text>4</div></div>"",""<div class = centerbox><div class = digit-span-text>2</div></div>"",""<div class = centerbox><div class = digit-span-text>3</div></div>"",""<div class = centerbox><div class = digit-span-text>8</div></div>""]","[-1]","none","[1000,1000,1000,1000,1000,1000,1000]","8400","0","test","5,1,7,4,2,3,8","7","","","","",""
"single-stim-button","37","170344","0.0-8.0-2.0","1330","2","digit-span","true","0","","9776","","","response","","","","","","9776","1000","test","5,1,7,4,2,3,8","7","SubmitButton","9776","5,1,7,4,2,3,8","forward","true"
"html-keyboard-response","38","171347","0.0-8.0-3.0","1330","2","digit-span","true","0","","null","<div class = centerbox><div class = center-text>7 Digits</p></div>","null","test_intro","","","","","","","","","","","","","","",""
"poldrack-multi-stim-multi-response","39","180764","0.0-8.0-4.0","1330","2","digit-span","true","0","","[-1]","","","stim","","[""<div class = centerbox><div class = digit-span-text>9</div></div>"",""<div class = centerbox><div class = digit-span-text>8</div></div>"",""<div class = centerbox><div class = digit-span-text>5</div></div>"",""<div class = centerbox><div class = digit-span-text>2</div></div>"",""<div class = centerbox><div class = digit-span-text>1</div></div>"",""<div class = centerbox><div class = digit-span-text>6</div></div>"",""<div class = centerbox><div class = digit-span-text>3</div></div>""]","[-1]","none","[1000,1000,1000,1000,1000,1000,1000]","8400","0","test","9,8,5,2,1,6,3","7","","","","",""
"single-stim-button","40","192623","0.0-8.0-5.0","1330","2","digit-span","true","0","","11859","","","response","","","","","","11859","1000","test","9,8,5,2,1,6,3","7","SubmitButton","11859","9,8,5,2,1,6,3","forward","true"
"html-keyboard-response","41","193626","0.0-9.0-0.0","1330","2","digit-span","true","0","","null","<div class = centerbox><div class = center-text>8 Digits</p></div>","null","test_intro","","","","","","","","","","","","","","",""
"poldrack-multi-stim-multi-response","42","204230","0.0-9.0-1.0","1330","2","digit-span","true","0","","[-1]","","","stim","","[""<div class = centerbox><div class = digit-span-text>1</div></div>"",""<div class = centerbox><div class = digit-span-text>6</div></div>"",""<div class = centerbox><div class = digit-span-text>4</div></div>"",""<div class = centerbox><div class = digit-span-text>5</div></div>"",""<div class = centerbox><div class = digit-span-text>9</div></div>"",""<div class = centerbox><div class = digit-span-text>7</div></div>"",""<div class = centerbox><div class = digit-span-text>6</div></div>"",""<div class = centerbox><div class = digit-span-text>3</div></div>""]","[-1]","none","[1000,1000,1000,1000,1000,1000,1000,1000]","9600","0","test","1,6,4,5,9,7,6,3","8","","","","",""
"single-stim-button","43","213103","0.0-9.0-2.0","1330","2","digit-span","true","0","","8871","","","response","","","","","","8871","1000","test","1,6,4,5,9,7,6,3","8","SubmitButton","8871","1,6,4,5,9,7,6,3","forward","true"
"html-keyboard-response","44","214105","0.0-9.0-3.0","1330","2","digit-span","true","0","","null","<div class = centerbox><div class = center-text>8 Digits</p></div>","null","test_intro","","","","","","","","","","","","","","",""
"poldrack-multi-stim-multi-response","45","224707","0.0-9.0-4.0","1330","2","digit-span","true","0","","[-1]","","","stim","","[""<div class = centerbox><div class = digit-span-text>2</div></div>"",""<div class = centerbox><div class = digit-span-text>9</div></div>"",""<div class = centerbox><div class = digit-span-text>7</div></div>"",""<div class = centerbox><div class = digit-span-text>6</div></div>"",""<div class = centerbox><div class = digit-span-text>3</div></div>"",""<div class = centerbox><div class = digit-span-text>1</div></div>"",""<div class = centerbox><div class = digit-span-text>5</div></div>"",""<div class = centerbox><div class = digit-span-text>4</div></div>""]","[-1]","none","[1000,1000,1000,1000,1000,1000,1000,1000]","9600","0","test","2,9,7,6,3,1,5,4","8","","","","",""
"single-stim-button","46","234144","0.0-9.0-5.0","1330","2","digit-span","true","0","","9435","","","response","","","","","","9435","1000","test","2,9,7,6,3,1,5,4","8","SubmitButton","9435","2,9,7,6,3,1,5,4","forward","true"
"html-keyboard-response","47","235145","0.0-10.0-0.0","1330","2","digit-span","true","0","","null","<div class = centerbox><div class = center-text>9 Digits</p></div>","null","test_intro","","","","","","","","","","","","","","",""
"poldrack-multi-stim-multi-response","48","246949","0.0-10.0-1.0","1330","2","digit-span","true","0","","[-1]","","","stim","","[""<div class = centerbox><div class = digit-span-text>5</div></div>"",""<div class = centerbox><div class = digit-span-text>3</div></div>"",""<div class = centerbox><div class = digit-span-text>8</div></div>"",""<div class = centerbox><div class = digit-span-text>7</div></div>"",""<div class = centerbox><div class = digit-span-text>1</div></div>"",""<div class = centerbox><div class = digit-span-text>2</div></div>"",""<div class = centerbox><div class = digit-span-text>4</div></div>"",""<div class = centerbox><div class = digit-span-text>6</div></div>"",""<div class = centerbox><div class = digit-span-text>9</div></div>""]","[-1]","none","[1000,1000,1000,1000,1000,1000,1000,1000,1000]","10800","0","test","5,3,8,7,1,2,4,6,9","9","","","","",""
"single-stim-button","49","273096","0.0-10.0-2.0","1330","2","digit-span","true","0","","26145","","","response","","","","","","26145","1000","test","5,3,8,7,1,2,4,6,9","9","SubmitButton","26145","9,3,8,7,1,2,4,6,9","forward","false"
"html-keyboard-response","50","274097","0.0-10.0-3.0","1330","2","digit-span","true","0","","null","<div class = centerbox><div class = center-text>9 Digits</p></div>","null","test_intro","","","","","","","","","","","","","","",""
"poldrack-multi-stim-multi-response","51","285900","0.0-10.0-4.0","1330","2","digit-span","true","0","","[-1]","","","stim","","[""<div class = centerbox><div class = digit-span-text>4</div></div>"",""<div class = centerbox><div class = digit-span-text>2</div></div>"",""<div class = centerbox><div class = digit-span-text>6</div></div>"",""<div class = centerbox><div class = digit-span-text>9</div></div>"",""<div class = centerbox><div class = digit-span-text>1</div></div>"",""<div class = centerbox><div class = digit-span-text>7</div></div>"",""<div class = centerbox><div class = digit-span-text>8</div></div>"",""<div class = centerbox><div class = digit-span-text>3</div></div>"",""<div class = centerbox><div class = digit-span-text>5</div></div>""]","[-1]","none","[1000,1000,1000,1000,1000,1000,1000,1000,1000]","10800","0","test","4,2,6,9,1,7,8,3,5","9","","","","",""
"single-stim-button","52","295316","0.0-10.0-5.0","1330","2","digit-span","true","0","","9415","","","response","","","","","","9415","1000","test","4,2,6,9,1,7,8,3,5","9","SubmitButton","9415","4,2,6,9,1,7,8,3,5","forward","true"
"html-keyboard-response","53","303913","0.0-11.0","1330","2","digit-span","true","0","","8594.800000011921","<div class = centerbox><p class = block-text>Now, you will see some numbers, but this time you will enter them <strong>backward</strong>.<br><br>For example, you see <strong>“1—5”</strong>, and you will enter <strong>“5—1”</strong>.<br><br><br>Press <strong>""Enter/Return""</strong> to begin.</p></div>","13","start_reverse","","","","","","","","","","","","","","",""
"html-keyboard-response","54","304914","0.0-12.0-0.0","1330","2","digit-span","true","0","","null","<div class = centerbox><div class = center-text>2 Digits</p></div>","null","test_intro","","","","","","","","","","","","","","",""
"poldrack-multi-stim-multi-response","55","308317","0.0-12.0-1.0","1330","2","digit-span","true","0","","[-1]","","","stim","","[""<div class = centerbox><div class = digit-span-text>8</div></div>"",""<div class = centerbox><div class = digit-span-text>2</div></div>""]","[-1]","none","[1000,1000]","2400","0","test","8,2","2","","","","",""
"single-stim-button","56","311375","0.0-12.0-2.0","1330","2","digit-span","true","0","","3056","","","response","","","","","","3056","1000","test","8,2","2","SubmitButton","3056","2,8","practice","true"
"html-keyboard-response","57","321377","0.0-12.0-3.0","1330","2","digit-span","true","0","","null","<div class = centerbox><div class = center-block-text><span style=""color:green"">Correct!</span></div></div>","null","feedback","","","","","","","","","","","","","","",""
"html-keyboard-response","58","322379","0.0-12.0-4.0","1330","2","digit-span","true","0","","null","<div class = centerbox><div class = center-text>2 Digits</p></div>","null","test_intro","","","","","","","","","","","","","","",""
"poldrack-multi-stim-multi-response","59","325783","0.0-12.0-5.0","1330","2","digit-span","true","0","","[-1]","","","stim","","[""<div class = centerbox><div class = digit-span-text>5</div></div>"",""<div class = centerbox><div class = digit-span-text>6</div></div>""]","[-1]","none","[1000,1000]","2400","0","test","5,6","2","","","","",""
"single-stim-button","60","327903","0.0-12.0-6.0","1330","2","digit-span","true","0","","2119","","","response","","","","","","2119","1000","test","5,6","2","SubmitButton","2119","6,5","practice","true"
"html-keyboard-response","61","328905","0.0-13.0-0.0","1330","2","digit-span","true","0","","null","<div class = centerbox><div class = center-text>2 Digits</p></div>","null","test_intro","","","","","","","","","","","","","","",""
"poldrack-multi-stim-multi-response","62","332309","0.0-13.0-1.0","1330","2","digit-span","true","0","","[-1]","","","stim","","[""<div class = centerbox><div class = digit-span-text>2</div></div>"",""<div class = centerbox><div class = digit-span-text>5</div></div>""]","[-1]","none","[1000,1000]","2400","0","test","2,5","2","","","","",""
"single-stim-button","63","335009","0.0-13.0-2.0","1330","2","digit-span","true","0","","2699","","","response","","","","","","2699","1000","test","2,5","2","SubmitButton","2699","5,2","reverse","true"
"html-keyboard-response","64","336011","0.0-13.0-3.0","1330","2","digit-span","true","0","","null","<div class = centerbox><div class = center-text>2 Digits</p></div>","null","test_intro","","","","","","","","","","","","","","",""
"poldrack-multi-stim-multi-response","65","339415","0.0-13.0-4.0","1330","2","digit-span","true","0","","[-1]","","","stim","","[""<div class = centerbox><div class = digit-span-text>6</div></div>"",""<div class = centerbox><div class = digit-span-text>3</div></div>""]","[-1]","none","[1000,1000]","2400","0","test","6,3","2","","","","",""
"single-stim-button","66","342737","0.0-13.0-5.0","1330","2","digit-span","true","0","","3320","","","response","","","","","","3320","1000","test","6,3","2","SubmitButton","3320","3,6","reverse","true"
"html-keyboard-response","67","343739","0.0-14.0-0.0","1330","2","digit-span","true","0","","null","<div class = centerbox><div class = center-text>3 Digits</p></div>","null","test_intro","","","","","","","","","","","","","","",""
"poldrack-multi-stim-multi-response","68","348343","0.0-14.0-1.0","1330","2","digit-span","true","0","","[-1]","","","stim","","[""<div class = centerbox><div class = digit-span-text>5</div></div>"",""<div class = centerbox><div class = digit-span-text>7</div></div>"",""<div class = centerbox><div class = digit-span-text>4</div></div>""]","[-1]","none","[1000,1000,1000]","3600","0","test","5,7,4","3","","","","",""
"single-stim-button","69","352138","0.0-14.0-2.0","1330","2","digit-span","true","0","","3794","","","response","","","","","","3794","1000","test","5,7,4","3","SubmitButton","3794","5,7,4","reverse","false"
"html-keyboard-response","70","353140","0.0-14.0-3.0","1330","2","digit-span","true","0","","null","<div class = centerbox><div class = center-text>3 Digits</p></div>","null","test_intro","","","","","","","","","","","","","","",""
"poldrack-multi-stim-multi-response","71","357743","0.0-14.0-4.0","1330","2","digit-span","true","0","","[-1]","","","stim","","[""<div class = centerbox><div class = digit-span-text>2</div></div>"",""<div class = centerbox><div class = digit-span-text>5</div></div>"",""<div class = centerbox><div class = digit-span-text>9</div></div>""]","[-1]","none","[1000,1000,1000]","3600","0","test","2,5,9","3","","","","",""
"single-stim-button","72","363351","0.0-14.0-5.0","1330","2","digit-span","true","0","","5606","","","response","","","","","","5606","1000","test","2,5,9","3","SubmitButton","5606","9,5,2","reverse","true"
"html-keyboard-response","73","364353","0.0-15.0-0.0","1330","2","digit-span","true","0","","null","<div class = centerbox><div class = center-text>4 Digits</p></div>","null","test_intro","","","","","","","","","","","","","","",""
"poldrack-multi-stim-multi-response","74","370157","0.0-15.0-1.0","1330","2","digit-span","true","0","","[-1]","","","stim","","[""<div class = centerbox><div class = digit-span-text>7</div></div>"",""<div class = centerbox><div class = digit-span-text>2</div></div>"",""<div class = centerbox><div class = digit-span-text>9</div></div>"",""<div class = centerbox><div class = digit-span-text>6</div></div>""]","[-1]","none","[1000,1000,1000,1000]","4800","0","test","7,2,9,6","4","","","","",""
"single-stim-button","75","378040","0.0-15.0-2.0","1330","2","digit-span","true","0","","7883","","","response","","","","","","7883","1000","test","7,2,9,6","4","SubmitButton","7883","6,9,2,7","reverse","true"
"html-keyboard-response","76","379042","0.0-15.0-3.0","1330","2","digit-span","true","0","","null","<div class = centerbox><div class = center-text>4 Digits</p></div>","null","test_intro","","","","","","","","","","","","","","",""
"poldrack-multi-stim-multi-response","77","384846","0.0-15.0-4.0","1330","2","digit-span","true","0","","[-1]","","","stim","","[""<div class = centerbox><div class = digit-span-text>8</div></div>"",""<div class = centerbox><div class = digit-span-text>4</div></div>"",""<div class = centerbox><div class = digit-span-text>9</div></div>"",""<div class = centerbox><div class = digit-span-text>3</div></div>""]","[-1]","none","[1000,1000,1000,1000]","4800","0","test","8,4,9,3","4","","","","",""
"single-stim-button","78","395115","0.0-15.0-5.0","1330","2","digit-span","true","0","","10267","","","response","","","","","","10267","1000","test","8,4,9,3","4","SubmitButton","10267","3,9,4,8","reverse","true"
"html-keyboard-response","79","396117","0.0-16.0-0.0","1330","2","digit-span","true","0","","null","<div class = centerbox><div class = center-text>5 Digits</p></div>","null","test_intro","","","","","","","","","","","","","","",""
"poldrack-multi-stim-multi-response","80","403134","0.0-16.0-1.0","1330","2","digit-span","true","0","","[-1]","","","stim","","[""<div class = centerbox><div class = digit-span-text>4</div></div>"",""<div class = centerbox><div class = digit-span-text>1</div></div>"",""<div class = centerbox><div class = digit-span-text>3</div></div>"",""<div class = centerbox><div class = digit-span-text>5</div></div>"",""<div class = centerbox><div class = digit-span-text>7</div></div>""]","[-1]","none","[1000,1000,1000,1000,1000]","6000","0","test","4,1,3,5,7","5","","","","",""
"single-stim-button","81","409742","0.0-16.0-2.0","1330","2","digit-span","true","0","","6607","","","response","","","","","","6607","1000","test","4,1,3,5,7","5","SubmitButton","6607","7,5,3,1,4","reverse","true"
"html-keyboard-response","82","410743","0.0-16.0-3.0","1330","2","digit-span","true","0","","null","<div class = centerbox><div class = center-text>5 Digits</p></div>","null","test_intro","","","","","","","","","","","","","","",""
"poldrack-multi-stim-multi-response","83","417746","0.0-16.0-4.0","1330","2","digit-span","true","0","","[-1]","","","stim","","[""<div class = centerbox><div class = digit-span-text>9</div></div>"",""<div class = centerbox><div class = digit-span-text>7</div></div>"",""<div class = centerbox><div class = digit-span-text>8</div></div>"",""<div class = centerbox><div class = digit-span-text>5</div></div>"",""<div class = centerbox><div class = digit-span-text>2</div></div>""]","[-1]","none","[1000,1000,1000,1000,1000]","6000","0","test","9,7,8,5,2","5","","","","",""
"single-stim-button","84","423579","0.0-16.0-5.0","1330","2","digit-span","true","0","","5831","","","response","","","","","","5831","1000","test","9,7,8,5,2","5","SubmitButton","5831","2,5,8,7,9","reverse","true"
"html-keyboard-response","85","424582","0.0-17.0-0.0","1330","2","digit-span","true","0","","null","<div class = centerbox><div class = center-text>6 Digits</p></div>","null","test_intro","","","","","","","","","","","","","","",""
"poldrack-multi-stim-multi-response","86","432786","0.0-17.0-1.0","1330","2","digit-span","true","0","","[-1]","","","stim","","[""<div class = centerbox><div class = digit-span-text>1</div></div>"",""<div class = centerbox><div class = digit-span-text>6</div></div>"",""<div class = centerbox><div class = digit-span-text>5</div></div>"",""<div class = centerbox><div class = digit-span-text>2</div></div>"",""<div class = centerbox><div class = digit-span-text>9</div></div>"",""<div class = centerbox><div class = digit-span-text>8</div></div>""]","[-1]","none","[1000,1000,1000,1000,1000,1000]","7200","0","test","1,6,5,2,9,8","6","","","","",""
"single-stim-button","87","454967","0.0-17.0-2.0","1330","2","digit-span","true","0","","22180","","","response","","","","","","22180","1000","test","1,6,5,2,9,8","6","SubmitButton","22180","8,9,2,5,6,1","reverse","true"
"html-keyboard-response","88","455970","0.0-17.0-3.0","1330","2","digit-span","true","0","","null","<div class = centerbox><div class = center-text>6 Digits</p></div>","null","test_intro","","","","","","","","","","","","","","",""
"poldrack-multi-stim-multi-response","89","464174","0.0-17.0-4.0","1330","2","digit-span","true","0","","[-1]","","","stim","","[""<div class = centerbox><div class = digit-span-text>3</div></div>"",""<div class = centerbox><div class = digit-span-text>6</div></div>"",""<div class = centerbox><div class = digit-span-text>7</div></div>"",""<div class = centerbox><div class = digit-span-text>1</div></div>"",""<div class = centerbox><div class = digit-span-text>9</div></div>"",""<div class = centerbox><div class = digit-span-text>4</div></div>""]","[-1]","none","[1000,1000,1000,1000,1000,1000]","7200","0","test","3,6,7,1,9,4","6","","","","",""
"single-stim-button","90","473548","0.0-17.0-5.0","1330","2","digit-span","true","0","","9372","","","response","","","","","","9372","1000","test","3,6,7,1,9,4","6","SubmitButton","9372","4,9,1,7,6,3","reverse","true"
"html-keyboard-response","91","474550","0.0-18.0-0.0","1330","2","digit-span","true","0","","null","<div class = centerbox><div class = center-text>7 Digits</p></div>","null","test_intro","","","","","","","","","","","","","","",""
"poldrack-multi-stim-multi-response","92","483954","0.0-18.0-1.0","1330","2","digit-span","true","0","","[-1]","","","stim","","[""<div class = centerbox><div class = digit-span-text>8</div></div>"",""<div class = centerbox><div class = digit-span-text>5</div></div>"",""<div class = centerbox><div class = digit-span-text>9</div></div>"",""<div class = centerbox><div class = digit-span-text>2</div></div>"",""<div class = centerbox><div class = digit-span-text>3</div></div>"",""<div class = centerbox><div class = digit-span-text>4</div></div>"",""<div class = centerbox><div class = digit-span-text>2</div></div>""]","[-1]","none","[1000,1000,1000,1000,1000,1000,1000]","8400","0","test","8,5,9,2,3,4,2","7","","","","",""
"single-stim-button","93","500153","0.0-18.0-2.0","1330","2","digit-span","true","0","","16197","","","response","","","","","","16197","1000","test","8,5,9,2,3,4,2","7","SubmitButton","16197","2,4,3,4,9,5,8","reverse","false"
"html-keyboard-response","94","501159","0.0-18.0-3.0","1330","2","digit-span","true","0","","null","<div class = centerbox><div class = center-text>7 Digits</p></div>","null","test_intro","","","","","","","","","","","","","","",""
"poldrack-multi-stim-multi-response","95","510563","0.0-18.0-4.0","1330","2","digit-span","true","0","","[-1]","","","stim","","[""<div class = centerbox><div class = digit-span-text>4</div></div>"",""<div class = centerbox><div class = digit-span-text>5</div></div>"",""<div class = centerbox><div class = digit-span-text>7</div></div>"",""<div class = centerbox><div class = digit-span-text>9</div></div>"",""<div class = centerbox><div class = digit-span-text>2</div></div>"",""<div class = centerbox><div class = digit-span-text>8</div></div>"",""<div class = centerbox><div class = digit-span-text>1</div></div>""]","[-1]","none","[1000,1000,1000,1000,1000,1000,1000]","8400","0","test","4,5,7,9,2,8,1","7","","","","",""
"single-stim-button","96","548077","0.0-18.0-5.0","1330","2","digit-span","true","0","","37512","","","response","","","","","","37512","1000","test","4,5,7,9,2,8,1","7","SubmitButton","37512","1,2,8,1,7,5,4","reverse","false"
"image-keyboard-response","97","550813","0.0-20.0","1330","2","digit-span","true","0","","2734.7999999821186","img/trophy2.jpeg","13","end","","","","","","","","","","","","","","",""
