"trial_type","trial_index","time_elapsed","internal_node_id","subject","exp_id","full_screen","focus_shifts","success","rt","stimulus","key_press","trial_id","view_history","stimuli","key_presses","possible_responses","stim_durations","block_duration","timing_post_trial","exp_stage","sequence","num_digits","mouse_click","stim_duration","response","condition","correct"
"pavlovia","0","5245","0.0-0.0","566","digit-span","false","0","","","","","","","","","","","","","","","","","","","",""
"fullscreen","1","11419","0.0-1.0","566","digit-span","true","0","true","","","","","","","","","","","","","","","","","","",""
"html-keyboard-response","2","16081","0.0-2.0-0.0","566","digit-span","true","0","","4659","<div class = centerbox><p class = center-block-text>Welcome to the number game! It will take less than 5 minutes. Press <strong>""Enter/Return""</strong> to begin.</p></div>","13","instruction","","","","","","","","","","","","","","",""
"instructions","3","21612","0.0-2.0-1.0","566","digit-span","true","0","","5530","","","instruction","[{""page_index"":0,""viewing_time"":5530}]","","","","","","","","","","","","","",""
"instructions","4","29035","0.0-2.0-2.0","566","digit-span","true","0","","6420.999999999996","","","instruction","[{""page_index"":0,""viewing_time"":6420.999999999996}]","","","","","","","","","","","","","",""
"html-keyboard-response","5","31039","0.0-3.0-0.0","566","digit-span","true","0","","null","<div class = centerbox><div class = center-text>2 Digits</p></div>","null","test_intro","","","","","","","","","","","","","","",""
"poldrack-multi-stim-multi-response","6","34446","0.0-3.0-1.0","566","digit-span","true","0","","[-1]","","","stim","","[""<div class = centerbox><div class = digit-span-text>2</div></div>"",""<div class = centerbox><div class = digit-span-text>9</div></div>""]","[-1]","none","[1000,1000]","2400","0","test","2,9","2","","","","",""
"single-stim-button","7","38050","0.0-3.0-2.0","566","digit-span","true","0","","3600","","","response","","","","","","3600","1000","test","2,9","2","SubmitButton","3600","2,9","forward","true"
"html-keyboard-response","8","39052","0.0-3.0-3.0","566","digit-span","true","0","","null","<div class = centerbox><div class = center-text>2 Digits</p></div>","null","test_intro","","","","","","","","","","","","","","",""
"poldrack-multi-stim-multi-response","9","42455","0.0-3.0-4.0","566","digit-span","true","0","","[-1]","","","stim","","[""<div class = centerbox><div class = digit-span-text>4</div></div>"",""<div class = centerbox><div class = digit-span-text>6</div></div>""]","[-1]","none","[1000,1000]","2400","0","test","4,6","2","","","","",""
"single-stim-button","10","45320","0.0-3.0-5.0","566","digit-span","true","0","","2861","","","response","","","","","","2861","1000","test","4,6","2","SubmitButton","2861","4,6","forward","true"
"html-keyboard-response","11","46322","0.0-4.0-0.0","566","digit-span","true","0","","null","<div class = centerbox><div class = center-text>3 Digits</p></div>","null","test_intro","","","","","","","","","","","","","","",""
"poldrack-multi-stim-multi-response","12","50926","0.0-4.0-1.0","566","digit-span","true","0","","[-1]","","","stim","","[""<div class = centerbox><div class = digit-span-text>3</div></div>"",""<div class = centerbox><div class = digit-span-text>8</div></div>"",""<div class = centerbox><div class = digit-span-text>6</div></div>""]","[-1]","none","[1000,1000,1000]","3600","0","test","3,8,6","3","","","","",""
"single-stim-button","13","54745","0.0-4.0-2.0","566","digit-span","true","0","","3815","","","response","","","","","","3815","1000","test","3,8,6","3","SubmitButton","3815","3,8,6","forward","true"
"html-keyboard-response","14","55748","0.0-4.0-3.0","566","digit-span","true","0","","null","<div class = centerbox><div class = center-text>3 Digits</p></div>","null","test_intro","","","","","","","","","","","","","","",""
"poldrack-multi-stim-multi-response","15","60353","0.0-4.0-4.0","566","digit-span","true","0","","[-1]","","","stim","","[""<div class = centerbox><div class = digit-span-text>6</div></div>"",""<div class = centerbox><div class = digit-span-text>1</div></div>"",""<div class = centerbox><div class = digit-span-text>2</div></div>""]","[-1]","none","[1000,1000,1000]","3600","0","test","6,1,2","3","","","","",""
"single-stim-button","16","64140","0.0-4.0-5.0","566","digit-span","true","0","","3783","","","response","","","","","","3783","1000","test","6,1,2","3","SubmitButton","3783","6,1,2","forward","true"
"html-keyboard-response","17","65143","0.0-5.0-0.0","566","digit-span","true","0","","null","<div class = centerbox><div class = center-text>4 Digits</p></div>","null","test_intro","","","","","","","","","","","","","","",""
"poldrack-multi-stim-multi-response","18","70947","0.0-5.0-1.0","566","digit-span","true","0","","[-1]","","","stim","","[""<div class = centerbox><div class = digit-span-text>3</div></div>"",""<div class = centerbox><div class = digit-span-text>4</div></div>"",""<div class = centerbox><div class = digit-span-text>1</div></div>"",""<div class = centerbox><div class = digit-span-text>7</div></div>""]","[-1]","none","[1000,1000,1000,1000]","4800","0","test","3,4,1,7","4","","","","",""
"single-stim-button","19","76437","0.0-5.0-2.0","566","digit-span","true","0","","5489","","","response","","","","","","5489","1000","test","3,4,1,7","4","SubmitButton","5489","3,4,1,7","forward","true"
"html-keyboard-response","20","77441","0.0-5.0-3.0","566","digit-span","true","0","","null","<div class = centerbox><div class = center-text>4 Digits</p></div>","null","test_intro","","","","","","","","","","","","","","",""
"poldrack-multi-stim-multi-response","21","83246","0.0-5.0-4.0","566","digit-span","true","0","","[-1]","","","stim","","[""<div class = centerbox><div class = digit-span-text>6</div></div>"",""<div class = centerbox><div class = digit-span-text>1</div></div>"",""<div class = centerbox><div class = digit-span-text>5</div></div>"",""<div class = centerbox><div class = digit-span-text>8</div></div>""]","[-1]","none","[1000,1000,1000,1000]","4800","0","test","6,1,5,8","4","","","","",""
"single-stim-button","22","86937","0.0-5.0-5.0","566","digit-span","true","0","","3686","","","response","","","","","","3686","1000","test","6,1,5,8","4","SubmitButton","3686","6,1,5,8","forward","true"
"html-keyboard-response","23","87940","0.0-6.0-0.0","566","digit-span","true","0","","null","<div class = centerbox><div class = center-text>5 Digits</p></div>","null","test_intro","","","","","","","","","","","","","","",""
"poldrack-multi-stim-multi-response","24","94945","0.0-6.0-1.0","566","digit-span","true","0","","[-1]","","","stim","","[""<div class = centerbox><div class = digit-span-text>8</div></div>"",""<div class = centerbox><div class = digit-span-text>4</div></div>"",""<div class = centerbox><div class = digit-span-text>2</div></div>"",""<div class = centerbox><div class = digit-span-text>3</div></div>"",""<div class = centerbox><div class = digit-span-text>9</div></div>""]","[-1]","none","[1000,1000,1000,1000,1000]","6000","0","test","8,4,2,3,9","5","","","","",""
"single-stim-button","25","100510","0.0-6.0-2.0","566","digit-span","true","0","","5563","","","response","","","","","","5563","1000","test","8,4,2,3,9","5","SubmitButton","5563","8,4,2,3,9","forward","true"
"html-keyboard-response","26","101512","0.0-6.0-3.0","566","digit-span","true","0","","null","<div class = centerbox><div class = center-text>5 Digits</p></div>","null","test_intro","","","","","","","","","","","","","","",""
"poldrack-multi-stim-multi-response","27","108515","0.0-6.0-4.0","566","digit-span","true","0","","[-1]","","","stim","","[""<div class = centerbox><div class = digit-span-text>5</div></div>"",""<div class = centerbox><div class = digit-span-text>2</div></div>"",""<div class = centerbox><div class = digit-span-text>1</div></div>"",""<div class = centerbox><div class = digit-span-text>8</div></div>"",""<div class = centerbox><div class = digit-span-text>6</div></div>""]","[-1]","none","[1000,1000,1000,1000,1000]","6000","0","test","5,2,1,8,6","5","","","","",""
"single-stim-button","28","112556","0.0-6.0-5.0","566","digit-span","true","0","","4039","","","response","","","","","","4039","1000","test","5,2,1,8,6","5","SubmitButton","4039","5,2,1,8,6","forward","true"
"html-keyboard-response","29","113559","0.0-7.0-0.0","566","digit-span","true","0","","null","<div class = centerbox><div class = center-text>6 Digits</p></div>","null","test_intro","","","","","","","","","","","","","","",""
"poldrack-multi-stim-multi-response","30","121763","0.0-7.0-1.0","566","digit-span","true","0","","[-1]","","","stim","","[""<div class = centerbox><div class = digit-span-text>3</div></div>"",""<div class = centerbox><div class = digit-span-text>8</div></div>"",""<div class = centerbox><div class = digit-span-text>9</div></div>"",""<div class = centerbox><div class = digit-span-text>1</div></div>"",""<div class = centerbox><div class = digit-span-text>7</div></div>"",""<div class = centerbox><div class = digit-span-text>4</div></div>""]","[-1]","none","[1000,1000,1000,1000,1000,1000]","7200","0","test","3,8,9,1,7,4","6","","","","",""
"single-stim-button","31","130702","0.0-7.0-2.0","566","digit-span","true","0","","8938","","","response","","","","","","8938","1000","test","3,8,9,1,7,4","6","SubmitButton","8938","3,8,1,9,7,4","forward","false"
"html-keyboard-response","32","131705","0.0-7.0-3.0","566","digit-span","true","0","","null","<div class = centerbox><div class = center-text>6 Digits</p></div>","null","test_intro","","","","","","","","","","","","","","",""
"poldrack-multi-stim-multi-response","33","139909","0.0-7.0-4.0","566","digit-span","true","0","","[-1]","","","stim","","[""<div class = centerbox><div class = digit-span-text>7</div></div>"",""<div class = centerbox><div class = digit-span-text>9</div></div>"",""<div class = centerbox><div class = digit-span-text>6</div></div>"",""<div class = centerbox><div class = digit-span-text>4</div></div>"",""<div class = centerbox><div class = digit-span-text>8</div></div>"",""<div class = centerbox><div class = digit-span-text>3</div></div>""]","[-1]","none","[1000,1000,1000,1000,1000,1000]","7200","0","test","7,9,6,4,8,3","6","","","","",""
"single-stim-button","34","145629","0.0-7.0-5.0","566","digit-span","true","0","","5719","","","response","","","","","","5719","1000","test","7,9,6,4,8,3","6","SubmitButton","5719","7,9,6,4,8,3","forward","true"
"html-keyboard-response","35","146631","0.0-8.0-0.0","566","digit-span","true","0","","null","<div class = centerbox><div class = center-text>7 Digits</p></div>","null","test_intro","","","","","","","","","","","","","","",""
"poldrack-multi-stim-multi-response","36","156036","0.0-8.0-1.0","566","digit-span","true","0","","[-1]","","","stim","","[""<div class = centerbox><div class = digit-span-text>5</div></div>"",""<div class = centerbox><div class = digit-span-text>1</div></div>"",""<div class = centerbox><div class = digit-span-text>7</div></div>"",""<div class = centerbox><div class = digit-span-text>4</div></div>"",""<div class = centerbox><div class = digit-span-text>2</div></div>"",""<div class = centerbox><div class = digit-span-text>3</div></div>"",""<div class = centerbox><div class = digit-span-text>8</div></div>""]","[-1]","none","[1000,1000,1000,1000,1000,1000,1000]","8400","0","test","5,1,7,4,2,3,8","7","","","","",""
"single-stim-button","37","164888","0.0-8.0-2.0","566","digit-span","true","0","","8847","","","response","","","","","","8847","1000","test","5,1,7,4,2,3,8","7","SubmitButton","8847","5,1,7,4,2,3,8","forward","true"
"html-keyboard-response","38","165890","0.0-8.0-3.0","566","digit-span","true","0","","null","<div class = centerbox><div class = center-text>7 Digits</p></div>","null","test_intro","","","","","","","","","","","","","","",""
"poldrack-multi-stim-multi-response","39","175294","0.0-8.0-4.0","566","digit-span","true","0","","[-1]","","","stim","","[""<div class = centerbox><div class = digit-span-text>9</div></div>"",""<div class = centerbox><div class = digit-span-text>8</div></div>"",""<div class = centerbox><div class = digit-span-text>5</div></div>"",""<div class = centerbox><div class = digit-span-text>2</div></div>"",""<div class = centerbox><div class = digit-span-text>1</div></div>"",""<div class = centerbox><div class = digit-span-text>6</div></div>"",""<div class = centerbox><div class = digit-span-text>3</div></div>""]","[-1]","none","[1000,1000,1000,1000,1000,1000,1000]","8400","0","test","9,8,5,2,1,6,3","7","","","","",""
"single-stim-button","40","180643","0.0-8.0-5.0","566","digit-span","true","0","","5343","","","response","","","","","","5343","1000","test","9,8,5,2,1,6,3","7","SubmitButton","5343","9,8,5,2,1,6,3","forward","true"
"html-keyboard-response","41","181645","0.0-9.0-0.0","566","digit-span","true","0","","null","<div class = centerbox><div class = center-text>8 Digits</p></div>","null","test_intro","","","","","","","","","","","","","","",""
"poldrack-multi-stim-multi-response","42","192249","0.0-9.0-1.0","566","digit-span","true","0","","[-1]","","","stim","","[""<div class = centerbox><div class = digit-span-text>1</div></div>"",""<div class = centerbox><div class = digit-span-text>6</div></div>"",""<div class = centerbox><div class = digit-span-text>4</div></div>"",""<div class = centerbox><div class = digit-span-text>5</div></div>"",""<div class = centerbox><div class = digit-span-text>9</div></div>"",""<div class = centerbox><div class = digit-span-text>7</div></div>"",""<div class = centerbox><div class = digit-span-text>6</div></div>"",""<div class = centerbox><div class = digit-span-text>3</div></div>""]","[-1]","none","[1000,1000,1000,1000,1000,1000,1000,1000]","9600","0","test","1,6,4,5,9,7,6,3","8","","","","",""
"single-stim-button","43","199974","0.0-9.0-2.0","566","digit-span","true","0","","7723","","","response","","","","","","7723","1000","test","1,6,4,5,9,7,6,3","8","SubmitButton","7723","1,6,4,5,9,7,6,3","forward","true"
"html-keyboard-response","44","200976","0.0-9.0-3.0","566","digit-span","true","0","","null","<div class = centerbox><div class = center-text>8 Digits</p></div>","null","test_intro","","","","","","","","","","","","","","",""
"poldrack-multi-stim-multi-response","45","211580","0.0-9.0-4.0","566","digit-span","true","0","","[-1]","","","stim","","[""<div class = centerbox><div class = digit-span-text>2</div></div>"",""<div class = centerbox><div class = digit-span-text>9</div></div>"",""<div class = centerbox><div class = digit-span-text>7</div></div>"",""<div class = centerbox><div class = digit-span-text>6</div></div>"",""<div class = centerbox><div class = digit-span-text>3</div></div>"",""<div class = centerbox><div class = digit-span-text>1</div></div>"",""<div class = centerbox><div class = digit-span-text>5</div></div>"",""<div class = centerbox><div class = digit-span-text>4</div></div>""]","[-1]","none","[1000,1000,1000,1000,1000,1000,1000,1000]","9600","0","test","2,9,7,6,3,1,5,4","8","","","","",""
"single-stim-button","46","217580","0.0-9.0-5.0","566","digit-span","true","0","","5994","","","response","","","","","","5994","1000","test","2,9,7,6,3,1,5,4","8","SubmitButton","5994","2,9,7,6,3,1,5,4","forward","true"
"html-keyboard-response","47","218581","0.0-10.0-0.0","566","digit-span","true","0","","null","<div class = centerbox><div class = center-text>9 Digits</p></div>","null","test_intro","","","","","","","","","","","","","","",""
"poldrack-multi-stim-multi-response","48","230385","0.0-10.0-1.0","566","digit-span","true","0","","[-1]","","","stim","","[""<div class = centerbox><div class = digit-span-text>5</div></div>"",""<div class = centerbox><div class = digit-span-text>3</div></div>"",""<div class = centerbox><div class = digit-span-text>8</div></div>"",""<div class = centerbox><div class = digit-span-text>7</div></div>"",""<div class = centerbox><div class = digit-span-text>1</div></div>"",""<div class = centerbox><div class = digit-span-text>2</div></div>"",""<div class = centerbox><div class = digit-span-text>4</div></div>"",""<div class = centerbox><div class = digit-span-text>6</div></div>"",""<div class = centerbox><div class = digit-span-text>9</div></div>""]","[-1]","none","[1000,1000,1000,1000,1000,1000,1000,1000,1000]","10800","0","test","5,3,8,7,1,2,4,6,9","9","","","","",""
"single-stim-button","49","242734","0.0-10.0-2.0","566","digit-span","true","0","","12347","","","response","","","","","","12347","1000","test","5,3,8,7,1,2,4,6,9","9","SubmitButton","12347","5,3,8,7,4,1,2,6,9","forward","false"
"html-keyboard-response","50","243738","0.0-10.0-3.0","566","digit-span","true","0","","null","<div class = centerbox><div class = center-text>9 Digits</p></div>","null","test_intro","","","","","","","","","","","","","","",""
"poldrack-multi-stim-multi-response","51","255542","0.0-10.0-4.0","566","digit-span","true","0","","[-1]","","","stim","","[""<div class = centerbox><div class = digit-span-text>4</div></div>"",""<div class = centerbox><div class = digit-span-text>2</div></div>"",""<div class = centerbox><div class = digit-span-text>6</div></div>"",""<div class = centerbox><div class = digit-span-text>9</div></div>"",""<div class = centerbox><div class = digit-span-text>1</div></div>"",""<div class = centerbox><div class = digit-span-text>7</div></div>"",""<div class = centerbox><div class = digit-span-text>8</div></div>"",""<div class = centerbox><div class = digit-span-text>3</div></div>"",""<div class = centerbox><div class = digit-span-text>5</div></div>""]","[-1]","none","[1000,1000,1000,1000,1000,1000,1000,1000,1000]","10800","0","test","4,2,6,9,1,7,8,3,5","9","","","","",""
"single-stim-button","52","267821","0.0-10.0-5.0","566","digit-span","true","0","","12275","","","response","","","","","","12275","1000","test","4,2,6,9,1,7,8,3,5","9","SubmitButton","12275","4,2,6,7,1,5,8,3,5","forward","false"
"html-keyboard-response","53","280013","0.0-11.0","566","digit-span","true","0","","12190.000000000058","<div class = centerbox><p class = block-text>Now, you will see some numbers, but this time you will enter them <strong>backward</strong>.<br><br>For example, you see <strong>“1—5”</strong>, and you will enter <strong>“5—1”</strong>.<br><br><br>Press <strong>""Enter/Return""</strong> to begin.</p></div>","13","start_reverse","","","","","","","","","","","","","","",""
"html-keyboard-response","54","281015","0.0-12.0-0.0","566","digit-span","true","0","","null","<div class = centerbox><div class = center-text>2 Digits</p></div>","null","test_intro","","","","","","","","","","","","","","",""
"poldrack-multi-stim-multi-response","55","284419","0.0-12.0-1.0","566","digit-span","true","0","","[-1]","","","stim","","[""<div class = centerbox><div class = digit-span-text>8</div></div>"",""<div class = centerbox><div class = digit-span-text>2</div></div>""]","[-1]","none","[1000,1000]","2400","0","test","8,2","2","","","","",""
"single-stim-button","56","287389","0.0-12.0-2.0","566","digit-span","true","0","","2965","","","response","","","","","","2965","1000","test","8,2","2","SubmitButton","2965","2,8","practice","true"
"html-keyboard-response","57","297392","0.0-12.0-3.0","566","digit-span","true","0","","null","<div class = centerbox><div class = center-block-text><span style=""color:green"">Correct!</span></div></div>","null","feedback","","","","","","","","","","","","","","",""
"html-keyboard-response","58","298395","0.0-12.0-4.0","566","digit-span","true","0","","null","<div class = centerbox><div class = center-text>2 Digits</p></div>","null","test_intro","","","","","","","","","","","","","","",""
"poldrack-multi-stim-multi-response","59","301799","0.0-12.0-5.0","566","digit-span","true","0","","[-1]","","","stim","","[""<div class = centerbox><div class = digit-span-text>5</div></div>"",""<div class = centerbox><div class = digit-span-text>6</div></div>""]","[-1]","none","[1000,1000]","2400","0","test","5,6","2","","","","",""
"single-stim-button","60","304300","0.0-12.0-6.0","566","digit-span","true","0","","2496","","","response","","","","","","2496","1000","test","5,6","2","SubmitButton","2496","6,5","practice","true"
"html-keyboard-response","61","305303","0.0-13.0-0.0","566","digit-span","true","0","","null","<div class = centerbox><div class = center-text>2 Digits</p></div>","null","test_intro","","","","","","","","","","","","","","",""
"poldrack-multi-stim-multi-response","62","308706","0.0-13.0-1.0","566","digit-span","true","0","","[-1]","","","stim","","[""<div class = centerbox><div class = digit-span-text>2</div></div>"",""<div class = centerbox><div class = digit-span-text>5</div></div>""]","[-1]","none","[1000,1000]","2400","0","test","2,5","2","","","","",""
"single-stim-button","63","311128","0.0-13.0-2.0","566","digit-span","true","0","","2418","","","response","","","","","","2418","1000","test","2,5","2","SubmitButton","2418","5,2","reverse","true"
"html-keyboard-response","64","312131","0.0-13.0-3.0","566","digit-span","true","0","","null","<div class = centerbox><div class = center-text>2 Digits</p></div>","null","test_intro","","","","","","","","","","","","","","",""
"poldrack-multi-stim-multi-response","65","315533","0.0-13.0-4.0","566","digit-span","true","0","","[-1]","","","stim","","[""<div class = centerbox><div class = digit-span-text>6</div></div>"",""<div class = centerbox><div class = digit-span-text>3</div></div>""]","[-1]","none","[1000,1000]","2400","0","test","6,3","2","","","","",""
"single-stim-button","66","317692","0.0-13.0-5.0","566","digit-span","true","0","","2157","","","response","","","","","","2157","1000","test","6,3","2","SubmitButton","2157","3,6","reverse","true"
"html-keyboard-response","67","318695","0.0-14.0-0.0","566","digit-span","true","0","","null","<div class = centerbox><div class = center-text>3 Digits</p></div>","null","test_intro","","","","","","","","","","","","","","",""
"poldrack-multi-stim-multi-response","68","323299","0.0-14.0-1.0","566","digit-span","true","0","","[-1]","","","stim","","[""<div class = centerbox><div class = digit-span-text>5</div></div>"",""<div class = centerbox><div class = digit-span-text>7</div></div>"",""<div class = centerbox><div class = digit-span-text>4</div></div>""]","[-1]","none","[1000,1000,1000]","3600","0","test","5,7,4","3","","","","",""
"single-stim-button","69","327073","0.0-14.0-2.0","566","digit-span","true","0","","3773","","","response","","","","","","3773","1000","test","5,7,4","3","SubmitButton","3773","4,7,5","reverse","true"
"html-keyboard-response","70","328075","0.0-14.0-3.0","566","digit-span","true","0","","null","<div class = centerbox><div class = center-text>3 Digits</p></div>","null","test_intro","","","","","","","","","","","","","","",""
"poldrack-multi-stim-multi-response","71","332678","0.0-14.0-4.0","566","digit-span","true","0","","[-1]","","","stim","","[""<div class = centerbox><div class = digit-span-text>2</div></div>"",""<div class = centerbox><div class = digit-span-text>5</div></div>"",""<div class = centerbox><div class = digit-span-text>9</div></div>""]","[-1]","none","[1000,1000,1000]","3600","0","test","2,5,9","3","","","","",""
"single-stim-button","72","336153","0.0-14.0-5.0","566","digit-span","true","0","","3474","","","response","","","","","","3474","1000","test","2,5,9","3","SubmitButton","3474","9,5,2","reverse","true"
"html-keyboard-response","73","337155","0.0-15.0-0.0","566","digit-span","true","0","","null","<div class = centerbox><div class = center-text>4 Digits</p></div>","null","test_intro","","","","","","","","","","","","","","",""
"poldrack-multi-stim-multi-response","74","342958","0.0-15.0-1.0","566","digit-span","true","0","","[-1]","","","stim","","[""<div class = centerbox><div class = digit-span-text>7</div></div>"",""<div class = centerbox><div class = digit-span-text>2</div></div>"",""<div class = centerbox><div class = digit-span-text>9</div></div>"",""<div class = centerbox><div class = digit-span-text>6</div></div>""]","[-1]","none","[1000,1000,1000,1000]","4800","0","test","7,2,9,6","4","","","","",""
"single-stim-button","75","350440","0.0-15.0-2.0","566","digit-span","true","0","","7480","","","response","","","","","","7480","1000","test","7,2,9,6","4","SubmitButton","7480","6,9,2,7","reverse","true"
"html-keyboard-response","76","351441","0.0-15.0-3.0","566","digit-span","true","0","","null","<div class = centerbox><div class = center-text>4 Digits</p></div>","null","test_intro","","","","","","","","","","","","","","",""
"poldrack-multi-stim-multi-response","77","357245","0.0-15.0-4.0","566","digit-span","true","0","","[-1]","","","stim","","[""<div class = centerbox><div class = digit-span-text>8</div></div>"",""<div class = centerbox><div class = digit-span-text>4</div></div>"",""<div class = centerbox><div class = digit-span-text>9</div></div>"",""<div class = centerbox><div class = digit-span-text>3</div></div>""]","[-1]","none","[1000,1000,1000,1000]","4800","0","test","8,4,9,3","4","","","","",""
"single-stim-button","78","361215","0.0-15.0-5.0","566","digit-span","true","0","","3969","","","response","","","","","","3969","1000","test","8,4,9,3","4","SubmitButton","3969","3,9,4,8","reverse","true"
"html-keyboard-response","79","362218","0.0-16.0-0.0","566","digit-span","true","0","","null","<div class = centerbox><div class = center-text>5 Digits</p></div>","null","test_intro","","","","","","","","","","","","","","",""
"poldrack-multi-stim-multi-response","80","369221","0.0-16.0-1.0","566","digit-span","true","0","","[-1]","","","stim","","[""<div class = centerbox><div class = digit-span-text>4</div></div>"",""<div class = centerbox><div class = digit-span-text>1</div></div>"",""<div class = centerbox><div class = digit-span-text>3</div></div>"",""<div class = centerbox><div class = digit-span-text>5</div></div>"",""<div class = centerbox><div class = digit-span-text>7</div></div>""]","[-1]","none","[1000,1000,1000,1000,1000]","6000","0","test","4,1,3,5,7","5","","","","",""
"single-stim-button","81","381479","0.0-16.0-2.0","566","digit-span","true","0","","12257","","","response","","","","","","12257","1000","test","4,1,3,5,7","5","SubmitButton","12257","7,5,3,1,4","reverse","true"
"html-keyboard-response","82","382481","0.0-16.0-3.0","566","digit-span","true","0","","null","<div class = centerbox><div class = center-text>5 Digits</p></div>","null","test_intro","","","","","","","","","","","","","","",""
"poldrack-multi-stim-multi-response","83","389484","0.0-16.0-4.0","566","digit-span","true","0","","[-1]","","","stim","","[""<div class = centerbox><div class = digit-span-text>9</div></div>"",""<div class = centerbox><div class = digit-span-text>7</div></div>"",""<div class = centerbox><div class = digit-span-text>8</div></div>"",""<div class = centerbox><div class = digit-span-text>5</div></div>"",""<div class = centerbox><div class = digit-span-text>2</div></div>""]","[-1]","none","[1000,1000,1000,1000,1000]","6000","0","test","9,7,8,5,2","5","","","","",""
"single-stim-button","84","400430","0.0-16.0-5.0","566","digit-span","true","0","","10944","","","response","","","","","","10944","1000","test","9,7,8,5,2","5","SubmitButton","10944","2,5,8,7,9","reverse","true"
"html-keyboard-response","85","401434","0.0-17.0-0.0","566","digit-span","true","0","","null","<div class = centerbox><div class = center-text>6 Digits</p></div>","null","test_intro","","","","","","","","","","","","","","",""
"poldrack-multi-stim-multi-response","86","409637","0.0-17.0-1.0","566","digit-span","true","0","","[-1]","","","stim","","[""<div class = centerbox><div class = digit-span-text>1</div></div>"",""<div class = centerbox><div class = digit-span-text>6</div></div>"",""<div class = centerbox><div class = digit-span-text>5</div></div>"",""<div class = centerbox><div class = digit-span-text>2</div></div>"",""<div class = centerbox><div class = digit-span-text>9</div></div>"",""<div class = centerbox><div class = digit-span-text>8</div></div>""]","[-1]","none","[1000,1000,1000,1000,1000,1000]","7200","0","test","1,6,5,2,9,8","6","","","","",""
"single-stim-button","87","431325","0.0-17.0-2.0","566","digit-span","true","0","","21683","","","response","","","","","","21683","1000","test","1,6,5,2,9,8","6","SubmitButton","21683","8,9,2,5,6,1","reverse","true"
"html-keyboard-response","88","432328","0.0-17.0-3.0","566","digit-span","true","0","","null","<div class = centerbox><div class = center-text>6 Digits</p></div>","null","test_intro","","","","","","","","","","","","","","",""
"poldrack-multi-stim-multi-response","89","440532","0.0-17.0-4.0","566","digit-span","true","0","","[-1]","","","stim","","[""<div class = centerbox><div class = digit-span-text>3</div></div>"",""<div class = centerbox><div class = digit-span-text>6</div></div>"",""<div class = centerbox><div class = digit-span-text>7</div></div>"",""<div class = centerbox><div class = digit-span-text>1</div></div>"",""<div class = centerbox><div class = digit-span-text>9</div></div>"",""<div class = centerbox><div class = digit-span-text>4</div></div>""]","[-1]","none","[1000,1000,1000,1000,1000,1000]","7200","0","test","3,6,7,1,9,4","6","","","","",""
"single-stim-button","90","451941","0.0-17.0-5.0","566","digit-span","true","0","","11404","","","response","","","","","","11404","1000","test","3,6,7,1,9,4","6","SubmitButton","11404","4,9,1,7,6,3","reverse","true"
"html-keyboard-response","91","452944","0.0-18.0-0.0","566","digit-span","true","0","","null","<div class = centerbox><div class = center-text>7 Digits</p></div>","null","test_intro","","","","","","","","","","","","","","",""
"poldrack-multi-stim-multi-response","92","462347","0.0-18.0-1.0","566","digit-span","true","0","","[-1]","","","stim","","[""<div class = centerbox><div class = digit-span-text>8</div></div>"",""<div class = centerbox><div class = digit-span-text>5</div></div>"",""<div class = centerbox><div class = digit-span-text>9</div></div>"",""<div class = centerbox><div class = digit-span-text>2</div></div>"",""<div class = centerbox><div class = digit-span-text>3</div></div>"",""<div class = centerbox><div class = digit-span-text>4</div></div>"",""<div class = centerbox><div class = digit-span-text>2</div></div>""]","[-1]","none","[1000,1000,1000,1000,1000,1000,1000]","8400","0","test","8,5,9,2,3,4,2","7","","","","",""
"single-stim-button","93","480060","0.0-18.0-2.0","566","digit-span","true","0","","17711","","","response","","","","","","17711","1000","test","8,5,9,2,3,4,2","7","SubmitButton","17711","2,4,3,2,9,5,8","reverse","true"
"html-keyboard-response","94","481061","0.0-18.0-3.0","566","digit-span","true","0","","null","<div class = centerbox><div class = center-text>7 Digits</p></div>","null","test_intro","","","","","","","","","","","","","","",""
"poldrack-multi-stim-multi-response","95","490465","0.0-18.0-4.0","566","digit-span","true","0","","[-1]","","","stim","","[""<div class = centerbox><div class = digit-span-text>4</div></div>"",""<div class = centerbox><div class = digit-span-text>5</div></div>"",""<div class = centerbox><div class = digit-span-text>7</div></div>"",""<div class = centerbox><div class = digit-span-text>9</div></div>"",""<div class = centerbox><div class = digit-span-text>2</div></div>"",""<div class = centerbox><div class = digit-span-text>8</div></div>"",""<div class = centerbox><div class = digit-span-text>1</div></div>""]","[-1]","none","[1000,1000,1000,1000,1000,1000,1000]","8400","0","test","4,5,7,9,2,8,1","7","","","","",""
"single-stim-button","96","508814","0.0-18.0-5.0","566","digit-span","true","0","","18344","","","response","","","","","","18344","1000","test","4,5,7,9,2,8,1","7","SubmitButton","18344","1,8,2,9,7,5,4","reverse","true"
"html-keyboard-response","97","509816","0.0-19.0-0.0","566","digit-span","true","0","","null","<div class = centerbox><div class = center-text>8 Digits</p></div>","null","test_intro","","","","","","","","","","","","","","",""
"poldrack-multi-stim-multi-response","98","520420","0.0-19.0-1.0","566","digit-span","true","0","","[-1]","","","stim","","[""<div class = centerbox><div class = digit-span-text>6</div></div>"",""<div class = centerbox><div class = digit-span-text>9</div></div>"",""<div class = centerbox><div class = digit-span-text>1</div></div>"",""<div class = centerbox><div class = digit-span-text>6</div></div>"",""<div class = centerbox><div class = digit-span-text>3</div></div>"",""<div class = centerbox><div class = digit-span-text>2</div></div>"",""<div class = centerbox><div class = digit-span-text>5</div></div>"",""<div class = centerbox><div class = digit-span-text>8</div></div>""]","[-1]","none","[1000,1000,1000,1000,1000,1000,1000,1000]","9600","0","test","6,9,1,6,3,2,5,8","8","","","","",""
"single-stim-button","99","547191","0.0-19.0-2.0","566","digit-span","true","0","","26770","","","response","","","","","","26770","1000","test","6,9,1,6,3,2,5,8","8","SubmitButton","26770","8,5,2,3,6,1,9,6","reverse","true"
"html-keyboard-response","100","548195","0.0-19.0-3.0","566","digit-span","true","0","","null","<div class = centerbox><div class = center-text>8 Digits</p></div>","null","test_intro","","","","","","","","","","","","","","",""
"poldrack-multi-stim-multi-response","101","558799","0.0-19.0-4.0","566","digit-span","true","0","","[-1]","","","stim","","[""<div class = centerbox><div class = digit-span-text>3</div></div>"",""<div class = centerbox><div class = digit-span-text>1</div></div>"",""<div class = centerbox><div class = digit-span-text>7</div></div>"",""<div class = centerbox><div class = digit-span-text>9</div></div>"",""<div class = centerbox><div class = digit-span-text>5</div></div>"",""<div class = centerbox><div class = digit-span-text>4</div></div>"",""<div class = centerbox><div class = digit-span-text>8</div></div>"",""<div class = centerbox><div class = digit-span-text>2</div></div>""]","[-1]","none","[1000,1000,1000,1000,1000,1000,1000,1000]","9600","0","test","3,1,7,9,5,4,8,2","8","","","","",""
"single-stim-button","102","583272","0.0-19.0-5.0","566","digit-span","true","0","","24468","","","response","","","","","","24468","1000","test","3,1,7,9,5,4,8,2","8","SubmitButton","24468","2,8,4,5,9,7,1,3","reverse","true"
"image-keyboard-response","103","585946","0.0-20.0","566","digit-span","true","0","","2671","img/trophy2.jpeg","13","end","","","","","","","","","","","","","","",""
