"trial_type","trial_index","time_elapsed","internal_node_id","subject","exp_id","full_screen","focus_shifts","success","rt","stimulus","key_press","trial_id","view_history","stimuli","key_presses","possible_responses","stim_durations","block_duration","timing_post_trial","exp_stage","sequence","num_digits","mouse_click","stim_duration","response","condition","correct"
"pavlovia","0","1889","0.0-0.0","1103","digit-span","false","0","","","","","","","","","","","","","","","","","","","",""
"fullscreen","1","4379","0.0-1.0","1103","digit-span","true","0","true","","","","","","","","","","","","","","","","","","",""
"html-keyboard-response","2","8927","0.0-2.0-0.0","1103","digit-span","true","0","","4545.5","<div class = centerbox><p class = center-block-text>Welcome to the number game! It will take less than 5 minutes. Press <strong>""Enter/Return""</strong> to begin.</p></div>","13","instruction","","","","","","","","","","","","","","",""
"instructions","3","15901","0.0-2.0-1.0","1103","digit-span","true","0","","6972.700000001118","","","instruction","[{""page_index"":0,""viewing_time"":6972.300000000745}]","","","","","","","","","","","","","",""
"instructions","4","22724","0.0-2.0-2.0","1103","digit-span","true","0","","5821.5999999996275","","","instruction","[{""page_index"":0,""viewing_time"":5821}]","","","","","","","","","","","","","",""
"html-keyboard-response","5","24737","0.0-3.0-0.0","1103","digit-span","true","0","","null","<div class = centerbox><div class = center-text>2 Digits</p></div>","null","test_intro","","","","","","","","","","","","","","",""
"poldrack-multi-stim-multi-response","6","28145","0.0-3.0-1.0","1103","digit-span","true","0","","[-1]","","","stim","","[""<div class = centerbox><div class = digit-span-text>2</div></div>"",""<div class = centerbox><div class = digit-span-text>9</div></div>""]","[-1]","none","[1000,1000]","2400","0","test","2,9","2","","","","",""
"single-stim-button","7","34404","0.0-3.0-2.0","1103","digit-span","true","0","","6257","","","response","","","","","","6257","1000","test","2,9","2","SubmitButton","6257","2,9","forward","true"
"html-keyboard-response","8","35407","0.0-3.0-3.0","1103","digit-span","true","0","","null","<div class = centerbox><div class = center-text>2 Digits</p></div>","null","test_intro","","","","","","","","","","","","","","",""
"poldrack-multi-stim-multi-response","9","38818","0.0-3.0-4.0","1103","digit-span","true","0","","[-1]","","","stim","","[""<div class = centerbox><div class = digit-span-text>4</div></div>"",""<div class = centerbox><div class = digit-span-text>6</div></div>""]","[-1]","none","[1000,1000]","2400","0","test","4,6","2","","","","",""
"single-stim-button","10","43082","0.0-3.0-5.0","1103","digit-span","true","0","","4263","","","response","","","","","","4263","1000","test","4,6","2","SubmitButton","4263","4,6","forward","true"
"html-keyboard-response","11","44087","0.0-4.0-0.0","1103","digit-span","true","0","","null","<div class = centerbox><div class = center-text>3 Digits</p></div>","null","test_intro","","","","","","","","","","","","","","",""
"poldrack-multi-stim-multi-response","12","48695","0.0-4.0-1.0","1103","digit-span","true","0","","[-1]","","","stim","","[""<div class = centerbox><div class = digit-span-text>3</div></div>"",""<div class = centerbox><div class = digit-span-text>8</div></div>"",""<div class = centerbox><div class = digit-span-text>6</div></div>""]","[-1]","none","[1000,1000,1000]","3600","0","test","3,8,6","3","","","","",""
"single-stim-button","13","52873","0.0-4.0-2.0","1103","digit-span","true","0","","4176","","","response","","","","","","4176","1000","test","3,8,6","3","SubmitButton","4176","3,8,6","forward","true"
"html-keyboard-response","14","53879","0.0-4.0-3.0","1103","digit-span","true","0","","null","<div class = centerbox><div class = center-text>3 Digits</p></div>","null","test_intro","","","","","","","","","","","","","","",""
"poldrack-multi-stim-multi-response","15","58487","0.0-4.0-4.0","1103","digit-span","true","0","","[-1]","","","stim","","[""<div class = centerbox><div class = digit-span-text>6</div></div>"",""<div class = centerbox><div class = digit-span-text>1</div></div>"",""<div class = centerbox><div class = digit-span-text>2</div></div>""]","[-1]","none","[1000,1000,1000]","3600","0","test","6,1,2","3","","","","",""
"single-stim-button","16","64329","0.0-4.0-5.0","1103","digit-span","true","0","","5840","","","response","","","","","","5840","1000","test","6,1,2","3","SubmitButton","5840","6,1,2","forward","true"
"html-keyboard-response","17","65330","0.0-5.0-0.0","1103","digit-span","true","0","","null","<div class = centerbox><div class = center-text>4 Digits</p></div>","null","test_intro","","","","","","","","","","","","","","",""
"poldrack-multi-stim-multi-response","18","71138","0.0-5.0-1.0","1103","digit-span","true","0","","[-1]","","","stim","","[""<div class = centerbox><div class = digit-span-text>3</div></div>"",""<div class = centerbox><div class = digit-span-text>4</div></div>"",""<div class = centerbox><div class = digit-span-text>1</div></div>"",""<div class = centerbox><div class = digit-span-text>7</div></div>""]","[-1]","none","[1000,1000,1000,1000]","4800","0","test","3,4,1,7","4","","","","",""
"single-stim-button","19","78137","0.0-5.0-2.0","1103","digit-span","true","0","","6998","","","response","","","","","","6998","1000","test","3,4,1,7","4","SubmitButton","6998","6,4,1,7","forward","false"
"html-keyboard-response","20","79139","0.0-5.0-3.0","1103","digit-span","true","0","","null","<div class = centerbox><div class = center-text>4 Digits</p></div>","null","test_intro","","","","","","","","","","","","","","",""
"poldrack-multi-stim-multi-response","21","84946","0.0-5.0-4.0","1103","digit-span","true","0","","[-1]","","","stim","","[""<div class = centerbox><div class = digit-span-text>6</div></div>"",""<div class = centerbox><div class = digit-span-text>1</div></div>"",""<div class = centerbox><div class = digit-span-text>5</div></div>"",""<div class = centerbox><div class = digit-span-text>8</div></div>""]","[-1]","none","[1000,1000,1000,1000]","4800","0","test","6,1,5,8","4","","","","",""
"single-stim-button","22","89507","0.0-5.0-5.0","1103","digit-span","true","0","","4558","","","response","","","","","","4558","1000","test","6,1,5,8","4","SubmitButton","4558","6,1,5,8","forward","true"
"html-keyboard-response","23","90509","0.0-6.0-0.0","1103","digit-span","true","0","","null","<div class = centerbox><div class = center-text>5 Digits</p></div>","null","test_intro","","","","","","","","","","","","","","",""
"poldrack-multi-stim-multi-response","24","97517","0.0-6.0-1.0","1103","digit-span","true","0","","[-1]","","","stim","","[""<div class = centerbox><div class = digit-span-text>8</div></div>"",""<div class = centerbox><div class = digit-span-text>4</div></div>"",""<div class = centerbox><div class = digit-span-text>2</div></div>"",""<div class = centerbox><div class = digit-span-text>3</div></div>"",""<div class = centerbox><div class = digit-span-text>9</div></div>""]","[-1]","none","[1000,1000,1000,1000,1000]","6000","0","test","8,4,2,3,9","5","","","","",""
"single-stim-button","25","102968","0.0-6.0-2.0","1103","digit-span","true","0","","5449","","","response","","","","","","5449","1000","test","8,4,2,3,9","5","SubmitButton","5449","8,4,2,3,9","forward","true"
"html-keyboard-response","26","103970","0.0-6.0-3.0","1103","digit-span","true","0","","null","<div class = centerbox><div class = center-text>5 Digits</p></div>","null","test_intro","","","","","","","","","","","","","","",""
"poldrack-multi-stim-multi-response","27","110978","0.0-6.0-4.0","1103","digit-span","true","0","","[-1]","","","stim","","[""<div class = centerbox><div class = digit-span-text>5</div></div>"",""<div class = centerbox><div class = digit-span-text>2</div></div>"",""<div class = centerbox><div class = digit-span-text>1</div></div>"",""<div class = centerbox><div class = digit-span-text>8</div></div>"",""<div class = centerbox><div class = digit-span-text>6</div></div>""]","[-1]","none","[1000,1000,1000,1000,1000]","6000","0","test","5,2,1,8,6","5","","","","",""
"single-stim-button","28","115950","0.0-6.0-5.0","1103","digit-span","true","0","","4970","","","response","","","","","","4970","1000","test","5,2,1,8,6","5","SubmitButton","4970","5,2,1,8,6","forward","true"
"html-keyboard-response","29","116952","0.0-7.0-0.0","1103","digit-span","true","0","","null","<div class = centerbox><div class = center-text>6 Digits</p></div>","null","test_intro","","","","","","","","","","","","","","",""
"poldrack-multi-stim-multi-response","30","125160","0.0-7.0-1.0","1103","digit-span","true","0","","[-1]","","","stim","","[""<div class = centerbox><div class = digit-span-text>3</div></div>"",""<div class = centerbox><div class = digit-span-text>8</div></div>"",""<div class = centerbox><div class = digit-span-text>9</div></div>"",""<div class = centerbox><div class = digit-span-text>1</div></div>"",""<div class = centerbox><div class = digit-span-text>7</div></div>"",""<div class = centerbox><div class = digit-span-text>4</div></div>""]","[-1]","none","[1000,1000,1000,1000,1000,1000]","7200","0","test","3,8,9,1,7,4","6","","","","",""
"single-stim-button","31","133680","0.0-7.0-2.0","1103","digit-span","true","0","","8518","","","response","","","","","","8518","1000","test","3,8,9,1,7,4","6","SubmitButton","8518","3,8,9,1,7,4","forward","true"
"html-keyboard-response","32","134686","0.0-7.0-3.0","1103","digit-span","true","0","","null","<div class = centerbox><div class = center-text>6 Digits</p></div>","null","test_intro","","","","","","","","","","","","","","",""
"poldrack-multi-stim-multi-response","33","142894","0.0-7.0-4.0","1103","digit-span","true","0","","[-1]","","","stim","","[""<div class = centerbox><div class = digit-span-text>7</div></div>"",""<div class = centerbox><div class = digit-span-text>9</div></div>"",""<div class = centerbox><div class = digit-span-text>6</div></div>"",""<div class = centerbox><div class = digit-span-text>4</div></div>"",""<div class = centerbox><div class = digit-span-text>8</div></div>"",""<div class = centerbox><div class = digit-span-text>3</div></div>""]","[-1]","none","[1000,1000,1000,1000,1000,1000]","7200","0","test","7,9,6,4,8,3","6","","","","",""
"single-stim-button","34","151743","0.0-7.0-5.0","1103","digit-span","true","0","","8848","","","response","","","","","","8848","1000","test","7,9,6,4,8,3","6","SubmitButton","8848","7,9,8,4,6,3","forward","false"
"html-keyboard-response","35","152750","0.0-8.0-0.0","1103","digit-span","true","0","","null","<div class = centerbox><div class = center-text>7 Digits</p></div>","null","test_intro","","","","","","","","","","","","","","",""
"poldrack-multi-stim-multi-response","36","162158","0.0-8.0-1.0","1103","digit-span","true","0","","[-1]","","","stim","","[""<div class = centerbox><div class = digit-span-text>5</div></div>"",""<div class = centerbox><div class = digit-span-text>1</div></div>"",""<div class = centerbox><div class = digit-span-text>7</div></div>"",""<div class = centerbox><div class = digit-span-text>4</div></div>"",""<div class = centerbox><div class = digit-span-text>2</div></div>"",""<div class = centerbox><div class = digit-span-text>3</div></div>"",""<div class = centerbox><div class = digit-span-text>8</div></div>""]","[-1]","none","[1000,1000,1000,1000,1000,1000,1000]","8400","0","test","5,1,7,4,2,3,8","7","","","","",""
"single-stim-button","37","172448","0.0-8.0-2.0","1103","digit-span","true","0","","10288","","","response","","","","","","10288","1000","test","5,1,7,4,2,3,8","7","SubmitButton","10288","5,1,7,4,2,3,8","forward","true"
"html-keyboard-response","38","173454","0.0-8.0-3.0","1103","digit-span","true","0","","null","<div class = centerbox><div class = center-text>7 Digits</p></div>","null","test_intro","","","","","","","","","","","","","","",""
"poldrack-multi-stim-multi-response","39","182862","0.0-8.0-4.0","1103","digit-span","true","0","","[-1]","","","stim","","[""<div class = centerbox><div class = digit-span-text>9</div></div>"",""<div class = centerbox><div class = digit-span-text>8</div></div>"",""<div class = centerbox><div class = digit-span-text>5</div></div>"",""<div class = centerbox><div class = digit-span-text>2</div></div>"",""<div class = centerbox><div class = digit-span-text>1</div></div>"",""<div class = centerbox><div class = digit-span-text>6</div></div>"",""<div class = centerbox><div class = digit-span-text>3</div></div>""]","[-1]","none","[1000,1000,1000,1000,1000,1000,1000]","8400","0","test","9,8,5,2,1,6,3","7","","","","",""
"single-stim-button","40","191676","0.0-8.0-5.0","1103","digit-span","true","0","","8812","","","response","","","","","","8812","1000","test","9,8,5,2,1,6,3","7","SubmitButton","8812","9,8,5,1,2,6,3","forward","false"
"html-keyboard-response","41","192682","0.0-9.0-0.0","1103","digit-span","true","0","","null","<div class = centerbox><div class = center-text>8 Digits</p></div>","null","test_intro","","","","","","","","","","","","","","",""
"poldrack-multi-stim-multi-response","42","203289","0.0-9.0-1.0","1103","digit-span","true","0","","[-1]","","","stim","","[""<div class = centerbox><div class = digit-span-text>1</div></div>"",""<div class = centerbox><div class = digit-span-text>6</div></div>"",""<div class = centerbox><div class = digit-span-text>4</div></div>"",""<div class = centerbox><div class = digit-span-text>5</div></div>"",""<div class = centerbox><div class = digit-span-text>9</div></div>"",""<div class = centerbox><div class = digit-span-text>7</div></div>"",""<div class = centerbox><div class = digit-span-text>6</div></div>"",""<div class = centerbox><div class = digit-span-text>3</div></div>""]","[-1]","none","[1000,1000,1000,1000,1000,1000,1000,1000]","9600","0","test","1,6,4,5,9,7,6,3","8","","","","",""
"single-stim-button","43","233798","0.0-9.0-2.0","1103","digit-span","true","0","","30507","","","response","","","","","","30507","1000","test","1,6,4,5,9,7,6,3","8","SubmitButton","30507","1,8,9,5,7,4,6,3","forward","false"
"html-keyboard-response","44","234804","0.0-9.0-3.0","1103","digit-span","true","0","","null","<div class = centerbox><div class = center-text>8 Digits</p></div>","null","test_intro","","","","","","","","","","","","","","",""
"poldrack-multi-stim-multi-response","45","245412","0.0-9.0-4.0","1103","digit-span","true","0","","[-1]","","","stim","","[""<div class = centerbox><div class = digit-span-text>2</div></div>"",""<div class = centerbox><div class = digit-span-text>9</div></div>"",""<div class = centerbox><div class = digit-span-text>7</div></div>"",""<div class = centerbox><div class = digit-span-text>6</div></div>"",""<div class = centerbox><div class = digit-span-text>3</div></div>"",""<div class = centerbox><div class = digit-span-text>1</div></div>"",""<div class = centerbox><div class = digit-span-text>5</div></div>"",""<div class = centerbox><div class = digit-span-text>4</div></div>""]","[-1]","none","[1000,1000,1000,1000,1000,1000,1000,1000]","9600","0","test","2,9,7,6,3,1,5,4","8","","","","",""
"single-stim-button","46","279783","0.0-9.0-5.0","1103","digit-span","true","0","","34368","","","response","","","","","","34368","1000","test","2,9,7,6,3,1,5,4","8","SubmitButton","34368","1,7,6,9,5,3,4","forward","false"
"html-keyboard-response","47","289753","0.0-11.0","1103","digit-span","true","0","","9968.5","<div class = centerbox><p class = block-text>Now, you will see some numbers, but this time you will enter them <strong>backward</strong>.<br><br>For example, you see <strong>“1—5”</strong>, and you will enter <strong>“5—1”</strong>.<br><br><br>Press <strong>""Enter/Return""</strong> to begin.</p></div>","13","start_reverse","","","","","","","","","","","","","","",""
"html-keyboard-response","48","290757","0.0-12.0-0.0","1103","digit-span","true","0","","null","<div class = centerbox><div class = center-text>2 Digits</p></div>","null","test_intro","","","","","","","","","","","","","","",""
"poldrack-multi-stim-multi-response","49","294165","0.0-12.0-1.0","1103","digit-span","true","0","","[-1]","","","stim","","[""<div class = centerbox><div class = digit-span-text>8</div></div>"",""<div class = centerbox><div class = digit-span-text>2</div></div>""]","[-1]","none","[1000,1000]","2400","0","test","8,2","2","","","","",""
"single-stim-button","50","297106","0.0-12.0-2.0","1103","digit-span","true","0","","2940","","","response","","","","","","2940","1000","test","8,2","2","SubmitButton","2940","2,8","practice","true"
"html-keyboard-response","51","307109","0.0-12.0-3.0","1103","digit-span","true","0","","null","<div class = centerbox><div class = center-block-text><span style=""color:green"">Correct!</span></div></div>","null","feedback","","","","","","","","","","","","","","",""
"html-keyboard-response","52","308112","0.0-12.0-4.0","1103","digit-span","true","0","","null","<div class = centerbox><div class = center-text>2 Digits</p></div>","null","test_intro","","","","","","","","","","","","","","",""
"poldrack-multi-stim-multi-response","53","311519","0.0-12.0-5.0","1103","digit-span","true","0","","[-1]","","","stim","","[""<div class = centerbox><div class = digit-span-text>5</div></div>"",""<div class = centerbox><div class = digit-span-text>6</div></div>""]","[-1]","none","[1000,1000]","2400","0","test","5,6","2","","","","",""
"single-stim-button","54","313643","0.0-12.0-6.0","1103","digit-span","true","0","","2122","","","response","","","","","","2122","1000","test","5,6","2","SubmitButton","2122","6,5","practice","true"
"html-keyboard-response","55","314645","0.0-13.0-0.0","1103","digit-span","true","0","","null","<div class = centerbox><div class = center-text>2 Digits</p></div>","null","test_intro","","","","","","","","","","","","","","",""
"poldrack-multi-stim-multi-response","56","318053","0.0-13.0-1.0","1103","digit-span","true","0","","[-1]","","","stim","","[""<div class = centerbox><div class = digit-span-text>2</div></div>"",""<div class = centerbox><div class = digit-span-text>5</div></div>""]","[-1]","none","[1000,1000]","2400","0","test","2,5","2","","","","",""
"single-stim-button","57","325905","0.0-13.0-2.0","1103","digit-span","true","0","","7851","","","response","","","","","","7851","1000","test","2,5","2","SubmitButton","7851","5,2","reverse","true"
"html-keyboard-response","58","326912","0.0-13.0-3.0","1103","digit-span","true","0","","null","<div class = centerbox><div class = center-text>2 Digits</p></div>","null","test_intro","","","","","","","","","","","","","","",""
"poldrack-multi-stim-multi-response","59","330319","0.0-13.0-4.0","1103","digit-span","true","0","","[-1]","","","stim","","[""<div class = centerbox><div class = digit-span-text>6</div></div>"",""<div class = centerbox><div class = digit-span-text>3</div></div>""]","[-1]","none","[1000,1000]","2400","0","test","6,3","2","","","","",""
"single-stim-button","60","336188","0.0-13.0-5.0","1103","digit-span","true","0","","5867","","","response","","","","","","5867","1000","test","6,3","2","SubmitButton","5867","3,6","reverse","true"
"html-keyboard-response","61","337194","0.0-14.0-0.0","1103","digit-span","true","0","","null","<div class = centerbox><div class = center-text>3 Digits</p></div>","null","test_intro","","","","","","","","","","","","","","",""
"poldrack-multi-stim-multi-response","62","341800","0.0-14.0-1.0","1103","digit-span","true","0","","[-1]","","","stim","","[""<div class = centerbox><div class = digit-span-text>5</div></div>"",""<div class = centerbox><div class = digit-span-text>7</div></div>"",""<div class = centerbox><div class = digit-span-text>4</div></div>""]","[-1]","none","[1000,1000,1000]","3600","0","test","5,7,4","3","","","","",""
"single-stim-button","63","344677","0.0-14.0-2.0","1103","digit-span","true","0","","2876","","","response","","","","","","2876","1000","test","5,7,4","3","SubmitButton","2876","4,7,5","reverse","true"
"html-keyboard-response","64","345680","0.0-14.0-3.0","1103","digit-span","true","0","","null","<div class = centerbox><div class = center-text>3 Digits</p></div>","null","test_intro","","","","","","","","","","","","","","",""
"poldrack-multi-stim-multi-response","65","350287","0.0-14.0-4.0","1103","digit-span","true","0","","[-1]","","","stim","","[""<div class = centerbox><div class = digit-span-text>2</div></div>"",""<div class = centerbox><div class = digit-span-text>5</div></div>"",""<div class = centerbox><div class = digit-span-text>9</div></div>""]","[-1]","none","[1000,1000,1000]","3600","0","test","2,5,9","3","","","","",""
"single-stim-button","66","354614","0.0-14.0-5.0","1103","digit-span","true","0","","4325","","","response","","","","","","4325","1000","test","2,5,9","3","SubmitButton","4325","2,5,9","reverse","false"
"html-keyboard-response","67","355620","0.0-15.0-0.0","1103","digit-span","true","0","","null","<div class = centerbox><div class = center-text>4 Digits</p></div>","null","test_intro","","","","","","","","","","","","","","",""
"poldrack-multi-stim-multi-response","68","361429","0.0-15.0-1.0","1103","digit-span","true","0","","[-1]","","","stim","","[""<div class = centerbox><div class = digit-span-text>7</div></div>"",""<div class = centerbox><div class = digit-span-text>2</div></div>"",""<div class = centerbox><div class = digit-span-text>9</div></div>"",""<div class = centerbox><div class = digit-span-text>6</div></div>""]","[-1]","none","[1000,1000,1000,1000]","4800","0","test","7,2,9,6","4","","","","",""
"single-stim-button","69","372174","0.0-15.0-2.0","1103","digit-span","true","0","","10743","","","response","","","","","","10743","1000","test","7,2,9,6","4","SubmitButton","10743","6,9,2,7","reverse","true"
"html-keyboard-response","70","373179","0.0-15.0-3.0","1103","digit-span","true","0","","null","<div class = centerbox><div class = center-text>4 Digits</p></div>","null","test_intro","","","","","","","","","","","","","","",""
"poldrack-multi-stim-multi-response","71","378987","0.0-15.0-4.0","1103","digit-span","true","0","","[-1]","","","stim","","[""<div class = centerbox><div class = digit-span-text>8</div></div>"",""<div class = centerbox><div class = digit-span-text>4</div></div>"",""<div class = centerbox><div class = digit-span-text>9</div></div>"",""<div class = centerbox><div class = digit-span-text>3</div></div>""]","[-1]","none","[1000,1000,1000,1000]","4800","0","test","8,4,9,3","4","","","","",""
"single-stim-button","72","385153","0.0-15.0-5.0","1103","digit-span","true","0","","6164","","","response","","","","","","6164","1000","test","8,4,9,3","4","SubmitButton","6164","3,9,8,4","reverse","false"
"html-keyboard-response","73","386160","0.0-16.0-0.0","1103","digit-span","true","0","","null","<div class = centerbox><div class = center-text>5 Digits</p></div>","null","test_intro","","","","","","","","","","","","","","",""
"poldrack-multi-stim-multi-response","74","393168","0.0-16.0-1.0","1103","digit-span","true","0","","[-1]","","","stim","","[""<div class = centerbox><div class = digit-span-text>4</div></div>"",""<div class = centerbox><div class = digit-span-text>1</div></div>"",""<div class = centerbox><div class = digit-span-text>3</div></div>"",""<div class = centerbox><div class = digit-span-text>5</div></div>"",""<div class = centerbox><div class = digit-span-text>7</div></div>""]","[-1]","none","[1000,1000,1000,1000,1000]","6000","0","test","4,1,3,5,7","5","","","","",""
"single-stim-button","75","405371","0.0-16.0-2.0","1103","digit-span","true","0","","12201","","","response","","","","","","12201","1000","test","4,1,3,5,7","5","SubmitButton","12201","7,5,3,1,4","reverse","true"
"html-keyboard-response","76","406374","0.0-16.0-3.0","1103","digit-span","true","0","","null","<div class = centerbox><div class = center-text>5 Digits</p></div>","null","test_intro","","","","","","","","","","","","","","",""
"poldrack-multi-stim-multi-response","77","413384","0.0-16.0-4.0","1103","digit-span","true","0","","[-1]","","","stim","","[""<div class = centerbox><div class = digit-span-text>9</div></div>"",""<div class = centerbox><div class = digit-span-text>7</div></div>"",""<div class = centerbox><div class = digit-span-text>8</div></div>"",""<div class = centerbox><div class = digit-span-text>5</div></div>"",""<div class = centerbox><div class = digit-span-text>2</div></div>""]","[-1]","none","[1000,1000,1000,1000,1000]","6000","0","test","9,7,8,5,2","5","","","","",""
"single-stim-button","78","428247","0.0-16.0-5.0","1103","digit-span","true","0","","14861","","","response","","","","","","14861","1000","test","9,7,8,5,2","5","SubmitButton","14861","2,5,8,7,9","reverse","true"
"html-keyboard-response","79","429254","0.0-17.0-0.0","1103","digit-span","true","0","","null","<div class = centerbox><div class = center-text>6 Digits</p></div>","null","test_intro","","","","","","","","","","","","","","",""
"poldrack-multi-stim-multi-response","80","437462","0.0-17.0-1.0","1103","digit-span","true","0","","[-1]","","","stim","","[""<div class = centerbox><div class = digit-span-text>1</div></div>"",""<div class = centerbox><div class = digit-span-text>6</div></div>"",""<div class = centerbox><div class = digit-span-text>5</div></div>"",""<div class = centerbox><div class = digit-span-text>2</div></div>"",""<div class = centerbox><div class = digit-span-text>9</div></div>"",""<div class = centerbox><div class = digit-span-text>8</div></div>""]","[-1]","none","[1000,1000,1000,1000,1000,1000]","7200","0","test","1,6,5,2,9,8","6","","","","",""
"single-stim-button","81","457495","0.0-17.0-2.0","1103","digit-span","true","0","","20031","","","response","","","","","","20031","1000","test","1,6,5,2,9,8","6","SubmitButton","20031","8,9,2,5,6,1","reverse","true"
"html-keyboard-response","82","458497","0.0-17.0-3.0","1103","digit-span","true","0","","null","<div class = centerbox><div class = center-text>6 Digits</p></div>","null","test_intro","","","","","","","","","","","","","","",""
"poldrack-multi-stim-multi-response","83","466705","0.0-17.0-4.0","1103","digit-span","true","0","","[-1]","","","stim","","[""<div class = centerbox><div class = digit-span-text>3</div></div>"",""<div class = centerbox><div class = digit-span-text>6</div></div>"",""<div class = centerbox><div class = digit-span-text>7</div></div>"",""<div class = centerbox><div class = digit-span-text>1</div></div>"",""<div class = centerbox><div class = digit-span-text>9</div></div>"",""<div class = centerbox><div class = digit-span-text>4</div></div>""]","[-1]","none","[1000,1000,1000,1000,1000,1000]","7200","0","test","3,6,7,1,9,4","6","","","","",""
"single-stim-button","84","483927","0.0-17.0-5.0","1103","digit-span","true","0","","17220","","","response","","","","","","17220","1000","test","3,6,7,1,9,4","6","SubmitButton","17220","4,9,1,7,6,3","reverse","true"
"html-keyboard-response","85","484929","0.0-18.0-0.0","1103","digit-span","true","0","","null","<div class = centerbox><div class = center-text>7 Digits</p></div>","null","test_intro","","","","","","","","","","","","","","",""
"poldrack-multi-stim-multi-response","86","494338","0.0-18.0-1.0","1103","digit-span","true","0","","[-1]","","","stim","","[""<div class = centerbox><div class = digit-span-text>8</div></div>"",""<div class = centerbox><div class = digit-span-text>5</div></div>"",""<div class = centerbox><div class = digit-span-text>9</div></div>"",""<div class = centerbox><div class = digit-span-text>2</div></div>"",""<div class = centerbox><div class = digit-span-text>3</div></div>"",""<div class = centerbox><div class = digit-span-text>4</div></div>"",""<div class = centerbox><div class = digit-span-text>2</div></div>""]","[-1]","none","[1000,1000,1000,1000,1000,1000,1000]","8400","0","test","8,5,9,2,3,4,2","7","","","","",""
"single-stim-button","87","520077","0.0-18.0-2.0","1103","digit-span","true","0","","25738","","","response","","","","","","25738","1000","test","8,5,9,2,3,4,2","7","SubmitButton","25738","8,9,5,2,7,3,4","reverse","false"
"html-keyboard-response","88","521079","0.0-18.0-3.0","1103","digit-span","true","0","","null","<div class = centerbox><div class = center-text>7 Digits</p></div>","null","test_intro","","","","","","","","","","","","","","",""
"poldrack-multi-stim-multi-response","89","530487","0.0-18.0-4.0","1103","digit-span","true","0","","[-1]","","","stim","","[""<div class = centerbox><div class = digit-span-text>4</div></div>"",""<div class = centerbox><div class = digit-span-text>5</div></div>"",""<div class = centerbox><div class = digit-span-text>7</div></div>"",""<div class = centerbox><div class = digit-span-text>9</div></div>"",""<div class = centerbox><div class = digit-span-text>2</div></div>"",""<div class = centerbox><div class = digit-span-text>8</div></div>"",""<div class = centerbox><div class = digit-span-text>1</div></div>""]","[-1]","none","[1000,1000,1000,1000,1000,1000,1000]","8400","0","test","4,5,7,9,2,8,1","7","","","","",""
"single-stim-button","90","567087","0.0-18.0-5.0","1103","digit-span","true","0","","36598","","","response","","","","","","36598","1000","test","4,5,7,9,2,8,1","7","SubmitButton","36598","1,8,2,9,7,5,4","reverse","true"
"html-keyboard-response","91","568093","0.0-19.0-0.0","1103","digit-span","true","0","","null","<div class = centerbox><div class = center-text>8 Digits</p></div>","null","test_intro","","","","","","","","","","","","","","",""
"poldrack-multi-stim-multi-response","92","578701","0.0-19.0-1.0","1103","digit-span","true","0","","[-1]","","","stim","","[""<div class = centerbox><div class = digit-span-text>6</div></div>"",""<div class = centerbox><div class = digit-span-text>9</div></div>"",""<div class = centerbox><div class = digit-span-text>1</div></div>"",""<div class = centerbox><div class = digit-span-text>6</div></div>"",""<div class = centerbox><div class = digit-span-text>3</div></div>"",""<div class = centerbox><div class = digit-span-text>2</div></div>"",""<div class = centerbox><div class = digit-span-text>5</div></div>"",""<div class = centerbox><div class = digit-span-text>8</div></div>""]","[-1]","none","[1000,1000,1000,1000,1000,1000,1000,1000]","9600","0","test","6,9,1,6,3,2,5,8","8","","","","",""
"single-stim-button","93","628316","0.0-19.0-2.0","1103","digit-span","true","0","","49613","","","response","","","","","","49613","1000","test","6,9,1,6,3,2,5,8","8","SubmitButton","49613","7,2,5,3,6,9,6,1","reverse","false"
"html-keyboard-response","94","629320","0.0-19.0-3.0","1103","digit-span","true","0","","null","<div class = centerbox><div class = center-text>8 Digits</p></div>","null","test_intro","","","","","","","","","","","","","","",""
"poldrack-multi-stim-multi-response","95","639926","0.0-19.0-4.0","1103","digit-span","true","0","","[-1]","","","stim","","[""<div class = centerbox><div class = digit-span-text>3</div></div>"",""<div class = centerbox><div class = digit-span-text>1</div></div>"",""<div class = centerbox><div class = digit-span-text>7</div></div>"",""<div class = centerbox><div class = digit-span-text>9</div></div>"",""<div class = centerbox><div class = digit-span-text>5</div></div>"",""<div class = centerbox><div class = digit-span-text>4</div></div>"",""<div class = centerbox><div class = digit-span-text>8</div></div>"",""<div class = centerbox><div class = digit-span-text>2</div></div>""]","[-1]","none","[1000,1000,1000,1000,1000,1000,1000,1000]","9600","0","test","3,1,7,9,5,4,8,2","8","","","","",""
"single-stim-button","96","691269","0.0-19.0-5.0","1103","digit-span","true","0","","51341","","","response","","","","","","51341","1000","test","3,1,7,9,5,4,8,2","8","SubmitButton","51341","2,3,5,8,7,9,5,1","reverse","false"
"image-keyboard-response","97","693749","0.0-20.0","1103","digit-span","true","0","","2477","img/trophy2.jpeg","13","end","","","","","","","","","","","","","","",""
