"trial_type","trial_index","time_elapsed","internal_node_id","subject","order","exp_id","full_screen","focus_shifts","success","rt","stimulus","key_press","trial_id","view_history","stimuli","key_presses","possible_responses","stim_durations","block_duration","timing_post_trial","exp_stage","sequence","num_digits","mouse_click","stim_duration","response","condition","correct"
"pavlovia","0","3109","0.0-0.0","2053","1","digit-span","true","0","","","","","","","","","","","","","","","","","","","",""
"fullscreen","1","6457","0.0-1.0","2053","1","digit-span","true","0","true","","","","","","","","","","","","","","","","","","",""
"html-keyboard-response","2","12211","0.0-2.0-0.0","2053","1","digit-span","true","0","","5751.099999904633","<div class = centerbox><p class = center-block-text>Welcome to the number game! It will take less than 5 minutes. Press <strong>""Enter/Return""</strong> to begin.</p></div>","13","instruction","","","","","","","","","","","","","","",""
"instructions","3","21468","0.0-2.0-1.0","2053","1","digit-span","true","0","","9256.700000047684","","","instruction","[{""page_index"":0,""viewing_time"":9256.200000047684}]","","","","","","","","","","","","","",""
"instructions","4","29418","0.0-2.0-2.0","2053","1","digit-span","true","0","","6948.799999952316","","","instruction","[{""page_index"":0,""viewing_time"":6948.599999904633}]","","","","","","","","","","","","","",""
"html-keyboard-response","5","31422","0.0-3.0-0.0","2053","1","digit-span","true","0","","null","<div class = centerbox><div class = center-text>2 Digits</p></div>","null","test_intro","","","","","","","","","","","","","","",""
"poldrack-multi-stim-multi-response","6","34828","0.0-3.0-1.0","2053","1","digit-span","true","0","","[-1]","","","stim","","[""<div class = centerbox><div class = digit-span-text>2</div></div>"",""<div class = centerbox><div class = digit-span-text>9</div></div>""]","[-1]","none","[1000,1000]","2400","0","test","2,9","2","","","","",""
"single-stim-button","7","41839","0.0-3.0-2.0","2053","1","digit-span","true","0","","7008","","","response","","","","","","7008","1000","test","2,9","2","SubmitButton","7008","2,9","forward","true"
"html-keyboard-response","8","42841","0.0-3.0-3.0","2053","1","digit-span","true","0","","null","<div class = centerbox><div class = center-text>2 Digits</p></div>","null","test_intro","","","","","","","","","","","","","","",""
"poldrack-multi-stim-multi-response","9","46244","0.0-3.0-4.0","2053","1","digit-span","true","0","","[-1]","","","stim","","[""<div class = centerbox><div class = digit-span-text>4</div></div>"",""<div class = centerbox><div class = digit-span-text>6</div></div>""]","[-1]","none","[1000,1000]","2400","0","test","4,6","2","","","","",""
"single-stim-button","10","50526","0.0-3.0-5.0","2053","1","digit-span","true","0","","4281","","","response","","","","","","4281","1000","test","4,6","2","SubmitButton","4281","4,6","forward","true"
"html-keyboard-response","11","51528","0.0-4.0-0.0","2053","1","digit-span","true","0","","null","<div class = centerbox><div class = center-text>3 Digits</p></div>","null","test_intro","","","","","","","","","","","","","","",""
"poldrack-multi-stim-multi-response","12","56131","0.0-4.0-1.0","2053","1","digit-span","true","0","","[-1]","","","stim","","[""<div class = centerbox><div class = digit-span-text>3</div></div>"",""<div class = centerbox><div class = digit-span-text>8</div></div>"",""<div class = centerbox><div class = digit-span-text>6</div></div>""]","[-1]","none","[1000,1000,1000]","3600","0","test","3,8,6","3","","","","",""
"single-stim-button","13","61261","0.0-4.0-2.0","2053","1","digit-span","true","0","","5129","","","response","","","","","","5129","1000","test","3,8,6","3","SubmitButton","5129","3,8,6","forward","true"
"html-keyboard-response","14","62263","0.0-4.0-3.0","2053","1","digit-span","true","0","","null","<div class = centerbox><div class = center-text>3 Digits</p></div>","null","test_intro","","","","","","","","","","","","","","",""
"poldrack-multi-stim-multi-response","15","66866","0.0-4.0-4.0","2053","1","digit-span","true","0","","[-1]","","","stim","","[""<div class = centerbox><div class = digit-span-text>6</div></div>"",""<div class = centerbox><div class = digit-span-text>1</div></div>"",""<div class = centerbox><div class = digit-span-text>2</div></div>""]","[-1]","none","[1000,1000,1000]","3600","0","test","6,1,2","3","","","","",""
"single-stim-button","16","72130","0.0-4.0-5.0","2053","1","digit-span","true","0","","5262","","","response","","","","","","5262","1000","test","6,1,2","3","SubmitButton","5262","6,1,2","forward","true"
"html-keyboard-response","17","73132","0.0-5.0-0.0","2053","1","digit-span","true","0","","null","<div class = centerbox><div class = center-text>4 Digits</p></div>","null","test_intro","","","","","","","","","","","","","","",""
"poldrack-multi-stim-multi-response","18","78935","0.0-5.0-1.0","2053","1","digit-span","true","0","","[-1]","","","stim","","[""<div class = centerbox><div class = digit-span-text>3</div></div>"",""<div class = centerbox><div class = digit-span-text>4</div></div>"",""<div class = centerbox><div class = digit-span-text>1</div></div>"",""<div class = centerbox><div class = digit-span-text>7</div></div>""]","[-1]","none","[1000,1000,1000,1000]","4800","0","test","3,4,1,7","4","","","","",""
"single-stim-button","19","86467","0.0-5.0-2.0","2053","1","digit-span","true","0","","7530","","","response","","","","","","7530","1000","test","3,4,1,7","4","SubmitButton","7530","3,4,1,7","forward","true"
"html-keyboard-response","20","87469","0.0-5.0-3.0","2053","1","digit-span","true","0","","null","<div class = centerbox><div class = center-text>4 Digits</p></div>","null","test_intro","","","","","","","","","","","","","","",""
"poldrack-multi-stim-multi-response","21","93272","0.0-5.0-4.0","2053","1","digit-span","true","0","","[-1]","","","stim","","[""<div class = centerbox><div class = digit-span-text>6</div></div>"",""<div class = centerbox><div class = digit-span-text>1</div></div>"",""<div class = centerbox><div class = digit-span-text>5</div></div>"",""<div class = centerbox><div class = digit-span-text>8</div></div>""]","[-1]","none","[1000,1000,1000,1000]","4800","0","test","6,1,5,8","4","","","","",""
"single-stim-button","22","98255","0.0-5.0-5.0","2053","1","digit-span","true","0","","4980","","","response","","","","","","4980","1000","test","6,1,5,8","4","SubmitButton","4980","6,1,5,8","forward","true"
"html-keyboard-response","23","99258","0.0-6.0-0.0","2053","1","digit-span","true","0","","null","<div class = centerbox><div class = center-text>5 Digits</p></div>","null","test_intro","","","","","","","","","","","","","","",""
"poldrack-multi-stim-multi-response","24","106261","0.0-6.0-1.0","2053","1","digit-span","true","0","","[-1]","","","stim","","[""<div class = centerbox><div class = digit-span-text>8</div></div>"",""<div class = centerbox><div class = digit-span-text>4</div></div>"",""<div class = centerbox><div class = digit-span-text>2</div></div>"",""<div class = centerbox><div class = digit-span-text>3</div></div>"",""<div class = centerbox><div class = digit-span-text>9</div></div>""]","[-1]","none","[1000,1000,1000,1000,1000]","6000","0","test","8,4,2,3,9","5","","","","",""
"single-stim-button","25","112780","0.0-6.0-2.0","2053","1","digit-span","true","0","","6517","","","response","","","","","","6517","1000","test","8,4,2,3,9","5","SubmitButton","6517","8,4,2,3,9","forward","true"
"html-keyboard-response","26","113782","0.0-6.0-3.0","2053","1","digit-span","true","0","","null","<div class = centerbox><div class = center-text>5 Digits</p></div>","null","test_intro","","","","","","","","","","","","","","",""
"poldrack-multi-stim-multi-response","27","120785","0.0-6.0-4.0","2053","1","digit-span","true","0","","[-1]","","","stim","","[""<div class = centerbox><div class = digit-span-text>5</div></div>"",""<div class = centerbox><div class = digit-span-text>2</div></div>"",""<div class = centerbox><div class = digit-span-text>1</div></div>"",""<div class = centerbox><div class = digit-span-text>8</div></div>"",""<div class = centerbox><div class = digit-span-text>6</div></div>""]","[-1]","none","[1000,1000,1000,1000,1000]","6000","0","test","5,2,1,8,6","5","","","","",""
"single-stim-button","28","127992","0.0-6.0-5.0","2053","1","digit-span","true","0","","7205","","","response","","","","","","7205","1000","test","5,2,1,8,6","5","SubmitButton","7205","5,2,1,8,6","forward","true"
"html-keyboard-response","29","128995","0.0-7.0-0.0","2053","1","digit-span","true","0","","null","<div class = centerbox><div class = center-text>6 Digits</p></div>","null","test_intro","","","","","","","","","","","","","","",""
"poldrack-multi-stim-multi-response","30","137198","0.0-7.0-1.0","2053","1","digit-span","true","0","","[-1]","","","stim","","[""<div class = centerbox><div class = digit-span-text>3</div></div>"",""<div class = centerbox><div class = digit-span-text>8</div></div>"",""<div class = centerbox><div class = digit-span-text>9</div></div>"",""<div class = centerbox><div class = digit-span-text>1</div></div>"",""<div class = centerbox><div class = digit-span-text>7</div></div>"",""<div class = centerbox><div class = digit-span-text>4</div></div>""]","[-1]","none","[1000,1000,1000,1000,1000,1000]","7200","0","test","3,8,9,1,7,4","6","","","","",""
"single-stim-button","31","148747","0.0-7.0-2.0","2053","1","digit-span","true","0","","11547","","","response","","","","","","11547","1000","test","3,8,9,1,7,4","6","SubmitButton","11547","3,8,9,1,7,4","forward","true"
"html-keyboard-response","32","149749","0.0-7.0-3.0","2053","1","digit-span","true","0","","null","<div class = centerbox><div class = center-text>6 Digits</p></div>","null","test_intro","","","","","","","","","","","","","","",""
"poldrack-multi-stim-multi-response","33","157952","0.0-7.0-4.0","2053","1","digit-span","true","0","","[-1]","","","stim","","[""<div class = centerbox><div class = digit-span-text>7</div></div>"",""<div class = centerbox><div class = digit-span-text>9</div></div>"",""<div class = centerbox><div class = digit-span-text>6</div></div>"",""<div class = centerbox><div class = digit-span-text>4</div></div>"",""<div class = centerbox><div class = digit-span-text>8</div></div>"",""<div class = centerbox><div class = digit-span-text>3</div></div>""]","[-1]","none","[1000,1000,1000,1000,1000,1000]","7200","0","test","7,9,6,4,8,3","6","","","","",""
"single-stim-button","34","166866","0.0-7.0-5.0","2053","1","digit-span","true","0","","8913","","","response","","","","","","8913","1000","test","7,9,6,4,8,3","6","SubmitButton","8913","7,9,6,4,8,3","forward","true"
"html-keyboard-response","35","167870","0.0-8.0-0.0","2053","1","digit-span","true","0","","null","<div class = centerbox><div class = center-text>7 Digits</p></div>","null","test_intro","","","","","","","","","","","","","","",""
"poldrack-multi-stim-multi-response","36","177273","0.0-8.0-1.0","2053","1","digit-span","true","0","","[-1]","","","stim","","[""<div class = centerbox><div class = digit-span-text>5</div></div>"",""<div class = centerbox><div class = digit-span-text>1</div></div>"",""<div class = centerbox><div class = digit-span-text>7</div></div>"",""<div class = centerbox><div class = digit-span-text>4</div></div>"",""<div class = centerbox><div class = digit-span-text>2</div></div>"",""<div class = centerbox><div class = digit-span-text>3</div></div>"",""<div class = centerbox><div class = digit-span-text>8</div></div>""]","[-1]","none","[1000,1000,1000,1000,1000,1000,1000]","8400","0","test","5,1,7,4,2,3,8","7","","","","",""
"single-stim-button","37","201233","0.0-8.0-2.0","2053","1","digit-span","true","0","","23957","","","response","","","","","","23957","1000","test","5,1,7,4,2,3,8","7","SubmitButton","23957","5,1,7,4,2,3,8","forward","true"
"html-keyboard-response","38","202235","0.0-8.0-3.0","2053","1","digit-span","true","0","","null","<div class = centerbox><div class = center-text>7 Digits</p></div>","null","test_intro","","","","","","","","","","","","","","",""
"poldrack-multi-stim-multi-response","39","211639","0.0-8.0-4.0","2053","1","digit-span","true","0","","[-1]","","","stim","","[""<div class = centerbox><div class = digit-span-text>9</div></div>"",""<div class = centerbox><div class = digit-span-text>8</div></div>"",""<div class = centerbox><div class = digit-span-text>5</div></div>"",""<div class = centerbox><div class = digit-span-text>2</div></div>"",""<div class = centerbox><div class = digit-span-text>1</div></div>"",""<div class = centerbox><div class = digit-span-text>6</div></div>"",""<div class = centerbox><div class = digit-span-text>3</div></div>""]","[-1]","none","[1000,1000,1000,1000,1000,1000,1000]","8400","0","test","9,8,5,2,1,6,3","7","","","","",""
"single-stim-button","40","234971","0.0-8.0-5.0","2053","1","digit-span","true","0","","23331","","","response","","","","","","23331","1000","test","9,8,5,2,1,6,3","7","SubmitButton","23331","9,8,5,2,1,6,3","forward","true"
"html-keyboard-response","41","235973","0.0-9.0-0.0","2053","1","digit-span","true","0","","null","<div class = centerbox><div class = center-text>8 Digits</p></div>","null","test_intro","","","","","","","","","","","","","","",""
"poldrack-multi-stim-multi-response","42","246576","0.0-9.0-1.0","2053","1","digit-span","true","0","","[-1]","","","stim","","[""<div class = centerbox><div class = digit-span-text>1</div></div>"",""<div class = centerbox><div class = digit-span-text>6</div></div>"",""<div class = centerbox><div class = digit-span-text>4</div></div>"",""<div class = centerbox><div class = digit-span-text>5</div></div>"",""<div class = centerbox><div class = digit-span-text>9</div></div>"",""<div class = centerbox><div class = digit-span-text>7</div></div>"",""<div class = centerbox><div class = digit-span-text>6</div></div>"",""<div class = centerbox><div class = digit-span-text>3</div></div>""]","[-1]","none","[1000,1000,1000,1000,1000,1000,1000,1000]","9600","0","test","1,6,4,5,9,7,6,3","8","","","","",""
"single-stim-button","43","267888","0.0-9.0-2.0","2053","1","digit-span","true","0","","21310","","","response","","","","","","21310","1000","test","1,6,4,5,9,7,6,3","8","SubmitButton","21310","1,6,4,5,9,7,6,3","forward","true"
"html-keyboard-response","44","268890","0.0-9.0-3.0","2053","1","digit-span","true","0","","null","<div class = centerbox><div class = center-text>8 Digits</p></div>","null","test_intro","","","","","","","","","","","","","","",""
"poldrack-multi-stim-multi-response","45","279493","0.0-9.0-4.0","2053","1","digit-span","true","0","","[-1]","","","stim","","[""<div class = centerbox><div class = digit-span-text>2</div></div>"",""<div class = centerbox><div class = digit-span-text>9</div></div>"",""<div class = centerbox><div class = digit-span-text>7</div></div>"",""<div class = centerbox><div class = digit-span-text>6</div></div>"",""<div class = centerbox><div class = digit-span-text>3</div></div>"",""<div class = centerbox><div class = digit-span-text>1</div></div>"",""<div class = centerbox><div class = digit-span-text>5</div></div>"",""<div class = centerbox><div class = digit-span-text>4</div></div>""]","[-1]","none","[1000,1000,1000,1000,1000,1000,1000,1000]","9600","0","test","2,9,7,6,3,1,5,4","8","","","","",""
"single-stim-button","46","297317","0.0-9.0-5.0","2053","1","digit-span","true","0","","17822","","","response","","","","","","17822","1000","test","2,9,7,6,3,1,5,4","8","SubmitButton","17822","2,9,7,6,3,1,5,4","forward","true"
"html-keyboard-response","47","298320","0.0-10.0-0.0","2053","1","digit-span","true","0","","null","<div class = centerbox><div class = center-text>9 Digits</p></div>","null","test_intro","","","","","","","","","","","","","","",""
"poldrack-multi-stim-multi-response","48","310124","0.0-10.0-1.0","2053","1","digit-span","true","0","","[-1]","","","stim","","[""<div class = centerbox><div class = digit-span-text>5</div></div>"",""<div class = centerbox><div class = digit-span-text>3</div></div>"",""<div class = centerbox><div class = digit-span-text>8</div></div>"",""<div class = centerbox><div class = digit-span-text>7</div></div>"",""<div class = centerbox><div class = digit-span-text>1</div></div>"",""<div class = centerbox><div class = digit-span-text>2</div></div>"",""<div class = centerbox><div class = digit-span-text>4</div></div>"",""<div class = centerbox><div class = digit-span-text>6</div></div>"",""<div class = centerbox><div class = digit-span-text>9</div></div>""]","[-1]","none","[1000,1000,1000,1000,1000,1000,1000,1000,1000]","10800","0","test","5,3,8,7,1,2,4,6,9","9","","","","",""
"single-stim-button","49","327135","0.0-10.0-2.0","2053","1","digit-span","true","0","","17010","","","response","","","","","","17010","1000","test","5,3,8,7,1,2,4,6,9","9","SubmitButton","17010","5,3,8,7,1,2,4,6,9","forward","true"
"html-keyboard-response","50","328137","0.0-10.0-3.0","2053","1","digit-span","true","0","","null","<div class = centerbox><div class = center-text>9 Digits</p></div>","null","test_intro","","","","","","","","","","","","","","",""
"poldrack-multi-stim-multi-response","51","339940","0.0-10.0-4.0","2053","1","digit-span","true","0","","[-1]","","","stim","","[""<div class = centerbox><div class = digit-span-text>4</div></div>"",""<div class = centerbox><div class = digit-span-text>2</div></div>"",""<div class = centerbox><div class = digit-span-text>6</div></div>"",""<div class = centerbox><div class = digit-span-text>9</div></div>"",""<div class = centerbox><div class = digit-span-text>1</div></div>"",""<div class = centerbox><div class = digit-span-text>7</div></div>"",""<div class = centerbox><div class = digit-span-text>8</div></div>"",""<div class = centerbox><div class = digit-span-text>3</div></div>"",""<div class = centerbox><div class = digit-span-text>5</div></div>""]","[-1]","none","[1000,1000,1000,1000,1000,1000,1000,1000,1000]","10800","0","test","4,2,6,9,1,7,8,3,5","9","","","","",""
"single-stim-button","52","359845","0.0-10.0-5.0","2053","1","digit-span","true","0","","19903","","","response","","","","","","19903","1000","test","4,2,6,9,1,7,8,3,5","9","SubmitButton","19903","4,2,6,9,1,7,8,3,5","forward","true"
"html-keyboard-response","53","368125","0.0-11.0","2053","1","digit-span","true","0","","8278.400000095367","<div class = centerbox><p class = block-text>Now, you will see some numbers, but this time you will enter them <strong>backward</strong>.<br><br>For example, you see <strong>“1—5”</strong>, and you will enter <strong>“5—1”</strong>.<br><br><br>Press <strong>""Enter/Return""</strong> to begin.</p></div>","13","start_reverse","","","","","","","","","","","","","","",""
"html-keyboard-response","54","369127","0.0-12.0-0.0","2053","1","digit-span","true","0","","null","<div class = centerbox><div class = center-text>2 Digits</p></div>","null","test_intro","","","","","","","","","","","","","","",""
"poldrack-multi-stim-multi-response","55","372530","0.0-12.0-1.0","2053","1","digit-span","true","0","","[-1]","","","stim","","[""<div class = centerbox><div class = digit-span-text>8</div></div>"",""<div class = centerbox><div class = digit-span-text>2</div></div>""]","[-1]","none","[1000,1000]","2400","0","test","8,2","2","","","","",""
"single-stim-button","56","375835","0.0-12.0-2.0","2053","1","digit-span","true","0","","3304","","","response","","","","","","3304","1000","test","8,2","2","SubmitButton","3304","2,8","practice","true"
"html-keyboard-response","57","385837","0.0-12.0-3.0","2053","1","digit-span","true","0","","null","<div class = centerbox><div class = center-block-text><span style=""color:green"">Correct!</span></div></div>","null","feedback","","","","","","","","","","","","","","",""
"html-keyboard-response","58","386839","0.0-12.0-4.0","2053","1","digit-span","true","0","","null","<div class = centerbox><div class = center-text>2 Digits</p></div>","null","test_intro","","","","","","","","","","","","","","",""
"poldrack-multi-stim-multi-response","59","390242","0.0-12.0-5.0","2053","1","digit-span","true","0","","[-1]","","","stim","","[""<div class = centerbox><div class = digit-span-text>5</div></div>"",""<div class = centerbox><div class = digit-span-text>6</div></div>""]","[-1]","none","[1000,1000]","2400","0","test","5,6","2","","","","",""
"single-stim-button","60","393311","0.0-12.0-6.0","2053","1","digit-span","true","0","","3067","","","response","","","","","","3067","1000","test","5,6","2","SubmitButton","3067","6,5","practice","true"
"html-keyboard-response","61","394313","0.0-13.0-0.0","2053","1","digit-span","true","0","","null","<div class = centerbox><div class = center-text>2 Digits</p></div>","null","test_intro","","","","","","","","","","","","","","",""
"poldrack-multi-stim-multi-response","62","397715","0.0-13.0-1.0","2053","1","digit-span","true","0","","[-1]","","","stim","","[""<div class = centerbox><div class = digit-span-text>2</div></div>"",""<div class = centerbox><div class = digit-span-text>5</div></div>""]","[-1]","none","[1000,1000]","2400","0","test","2,5","2","","","","",""
"single-stim-button","63","400286","0.0-13.0-2.0","2053","1","digit-span","true","0","","2569","","","response","","","","","","2569","1000","test","2,5","2","SubmitButton","2569","5,2","reverse","true"
"html-keyboard-response","64","401288","0.0-13.0-3.0","2053","1","digit-span","true","0","","null","<div class = centerbox><div class = center-text>2 Digits</p></div>","null","test_intro","","","","","","","","","","","","","","",""
"poldrack-multi-stim-multi-response","65","404690","0.0-13.0-4.0","2053","1","digit-span","true","0","","[-1]","","","stim","","[""<div class = centerbox><div class = digit-span-text>6</div></div>"",""<div class = centerbox><div class = digit-span-text>3</div></div>""]","[-1]","none","[1000,1000]","2400","0","test","6,3","2","","","","",""
"single-stim-button","66","409244","0.0-13.0-5.0","2053","1","digit-span","true","0","","4553","","","response","","","","","","4553","1000","test","6,3","2","SubmitButton","4553","3,6","reverse","true"
"html-keyboard-response","67","410247","0.0-14.0-0.0","2053","1","digit-span","true","0","","null","<div class = centerbox><div class = center-text>3 Digits</p></div>","null","test_intro","","","","","","","","","","","","","","",""
"poldrack-multi-stim-multi-response","68","414850","0.0-14.0-1.0","2053","1","digit-span","true","0","","[-1]","","","stim","","[""<div class = centerbox><div class = digit-span-text>5</div></div>"",""<div class = centerbox><div class = digit-span-text>7</div></div>"",""<div class = centerbox><div class = digit-span-text>4</div></div>""]","[-1]","none","[1000,1000,1000]","3600","0","test","5,7,4","3","","","","",""
"single-stim-button","69","431091","0.0-14.0-2.0","2053","1","digit-span","true","0","","16239","","","response","","","","","","16239","1000","test","5,7,4","3","SubmitButton","16239","4,7,5","reverse","true"
"html-keyboard-response","70","432093","0.0-14.0-3.0","2053","1","digit-span","true","0","","null","<div class = centerbox><div class = center-text>3 Digits</p></div>","null","test_intro","","","","","","","","","","","","","","",""
"poldrack-multi-stim-multi-response","71","436697","0.0-14.0-4.0","2053","1","digit-span","true","0","","[-1]","","","stim","","[""<div class = centerbox><div class = digit-span-text>2</div></div>"",""<div class = centerbox><div class = digit-span-text>5</div></div>"",""<div class = centerbox><div class = digit-span-text>9</div></div>""]","[-1]","none","[1000,1000,1000]","3600","0","test","2,5,9","3","","","","",""
"single-stim-button","72","442978","0.0-14.0-5.0","2053","1","digit-span","true","0","","6279","","","response","","","","","","6279","1000","test","2,5,9","3","SubmitButton","6279","9,5,2","reverse","true"
"html-keyboard-response","73","443980","0.0-15.0-0.0","2053","1","digit-span","true","0","","null","<div class = centerbox><div class = center-text>4 Digits</p></div>","null","test_intro","","","","","","","","","","","","","","",""
"poldrack-multi-stim-multi-response","74","449784","0.0-15.0-1.0","2053","1","digit-span","true","0","","[-1]","","","stim","","[""<div class = centerbox><div class = digit-span-text>7</div></div>"",""<div class = centerbox><div class = digit-span-text>2</div></div>"",""<div class = centerbox><div class = digit-span-text>9</div></div>"",""<div class = centerbox><div class = digit-span-text>6</div></div>""]","[-1]","none","[1000,1000,1000,1000]","4800","0","test","7,2,9,6","4","","","","",""
"single-stim-button","75","458701","0.0-15.0-2.0","2053","1","digit-span","true","0","","8917","","","response","","","","","","8917","1000","test","7,2,9,6","4","SubmitButton","8917","6,9,2,7","reverse","true"
"html-keyboard-response","76","459703","0.0-15.0-3.0","2053","1","digit-span","true","0","","null","<div class = centerbox><div class = center-text>4 Digits</p></div>","null","test_intro","","","","","","","","","","","","","","",""
"poldrack-multi-stim-multi-response","77","465506","0.0-15.0-4.0","2053","1","digit-span","true","0","","[-1]","","","stim","","[""<div class = centerbox><div class = digit-span-text>8</div></div>"",""<div class = centerbox><div class = digit-span-text>4</div></div>"",""<div class = centerbox><div class = digit-span-text>9</div></div>"",""<div class = centerbox><div class = digit-span-text>3</div></div>""]","[-1]","none","[1000,1000,1000,1000]","4800","0","test","8,4,9,3","4","","","","",""
"single-stim-button","78","478711","0.0-15.0-5.0","2053","1","digit-span","true","0","","13203","","","response","","","","","","13203","1000","test","8,4,9,3","4","SubmitButton","13203","3,9,4,8","reverse","true"
"html-keyboard-response","79","479712","0.0-16.0-0.0","2053","1","digit-span","true","0","","null","<div class = centerbox><div class = center-text>5 Digits</p></div>","null","test_intro","","","","","","","","","","","","","","",""
"poldrack-multi-stim-multi-response","80","486715","0.0-16.0-1.0","2053","1","digit-span","true","0","","[-1]","","","stim","","[""<div class = centerbox><div class = digit-span-text>4</div></div>"",""<div class = centerbox><div class = digit-span-text>1</div></div>"",""<div class = centerbox><div class = digit-span-text>3</div></div>"",""<div class = centerbox><div class = digit-span-text>5</div></div>"",""<div class = centerbox><div class = digit-span-text>7</div></div>""]","[-1]","none","[1000,1000,1000,1000,1000]","6000","0","test","4,1,3,5,7","5","","","","",""
"single-stim-button","81","503373","0.0-16.0-2.0","2053","1","digit-span","true","0","","16656","","","response","","","","","","16656","1000","test","4,1,3,5,7","5","SubmitButton","16656","7,5,3,1,4","reverse","true"
"html-keyboard-response","82","504375","0.0-16.0-3.0","2053","1","digit-span","true","0","","null","<div class = centerbox><div class = center-text>5 Digits</p></div>","null","test_intro","","","","","","","","","","","","","","",""
"poldrack-multi-stim-multi-response","83","511378","0.0-16.0-4.0","2053","1","digit-span","true","0","","[-1]","","","stim","","[""<div class = centerbox><div class = digit-span-text>9</div></div>"",""<div class = centerbox><div class = digit-span-text>7</div></div>"",""<div class = centerbox><div class = digit-span-text>8</div></div>"",""<div class = centerbox><div class = digit-span-text>5</div></div>"",""<div class = centerbox><div class = digit-span-text>2</div></div>""]","[-1]","none","[1000,1000,1000,1000,1000]","6000","0","test","9,7,8,5,2","5","","","","",""
"single-stim-button","84","539588","0.0-16.0-5.0","2053","1","digit-span","true","0","","28208","","","response","","","","","","28208","1000","test","9,7,8,5,2","5","SubmitButton","28208","2,5,8,7,9","reverse","true"
"html-keyboard-response","85","540590","0.0-17.0-0.0","2053","1","digit-span","true","0","","null","<div class = centerbox><div class = center-text>6 Digits</p></div>","null","test_intro","","","","","","","","","","","","","","",""
"poldrack-multi-stim-multi-response","86","548794","0.0-17.0-1.0","2053","1","digit-span","true","0","","[-1]","","","stim","","[""<div class = centerbox><div class = digit-span-text>1</div></div>"",""<div class = centerbox><div class = digit-span-text>6</div></div>"",""<div class = centerbox><div class = digit-span-text>5</div></div>"",""<div class = centerbox><div class = digit-span-text>2</div></div>"",""<div class = centerbox><div class = digit-span-text>9</div></div>"",""<div class = centerbox><div class = digit-span-text>8</div></div>""]","[-1]","none","[1000,1000,1000,1000,1000,1000]","7200","0","test","1,6,5,2,9,8","6","","","","",""
"single-stim-button","87","565038","0.0-17.0-2.0","2053","1","digit-span","true","0","","16242","","","response","","","","","","16242","1000","test","1,6,5,2,9,8","6","SubmitButton","16242","8,9,2,5,6,1","reverse","true"
"html-keyboard-response","88","566040","0.0-17.0-3.0","2053","1","digit-span","true","0","","null","<div class = centerbox><div class = center-text>6 Digits</p></div>","null","test_intro","","","","","","","","","","","","","","",""
"poldrack-multi-stim-multi-response","89","574243","0.0-17.0-4.0","2053","1","digit-span","true","0","","[-1]","","","stim","","[""<div class = centerbox><div class = digit-span-text>3</div></div>"",""<div class = centerbox><div class = digit-span-text>6</div></div>"",""<div class = centerbox><div class = digit-span-text>7</div></div>"",""<div class = centerbox><div class = digit-span-text>1</div></div>"",""<div class = centerbox><div class = digit-span-text>9</div></div>"",""<div class = centerbox><div class = digit-span-text>4</div></div>""]","[-1]","none","[1000,1000,1000,1000,1000,1000]","7200","0","test","3,6,7,1,9,4","6","","","","",""
"single-stim-button","90","590577","0.0-17.0-5.0","2053","1","digit-span","true","0","","16333","","","response","","","","","","16333","1000","test","3,6,7,1,9,4","6","SubmitButton","16333","4,9,1,7,6,3","reverse","true"
"html-keyboard-response","91","591579","0.0-18.0-0.0","2053","1","digit-span","true","0","","null","<div class = centerbox><div class = center-text>7 Digits</p></div>","null","test_intro","","","","","","","","","","","","","","",""
"poldrack-multi-stim-multi-response","92","600982","0.0-18.0-1.0","2053","1","digit-span","true","0","","[-1]","","","stim","","[""<div class = centerbox><div class = digit-span-text>8</div></div>"",""<div class = centerbox><div class = digit-span-text>5</div></div>"",""<div class = centerbox><div class = digit-span-text>9</div></div>"",""<div class = centerbox><div class = digit-span-text>2</div></div>"",""<div class = centerbox><div class = digit-span-text>3</div></div>"",""<div class = centerbox><div class = digit-span-text>4</div></div>"",""<div class = centerbox><div class = digit-span-text>2</div></div>""]","[-1]","none","[1000,1000,1000,1000,1000,1000,1000]","8400","0","test","8,5,9,2,3,4,2","7","","","","",""
"single-stim-button","93","621137","0.0-18.0-2.0","2053","1","digit-span","true","0","","20153","","","response","","","","","","20153","1000","test","8,5,9,2,3,4,2","7","SubmitButton","20153","2,4,3,2,9,5,8","reverse","true"
"html-keyboard-response","94","622139","0.0-18.0-3.0","2053","1","digit-span","true","0","","null","<div class = centerbox><div class = center-text>7 Digits</p></div>","null","test_intro","","","","","","","","","","","","","","",""
"poldrack-multi-stim-multi-response","95","631542","0.0-18.0-4.0","2053","1","digit-span","true","0","","[-1]","","","stim","","[""<div class = centerbox><div class = digit-span-text>4</div></div>"",""<div class = centerbox><div class = digit-span-text>5</div></div>"",""<div class = centerbox><div class = digit-span-text>7</div></div>"",""<div class = centerbox><div class = digit-span-text>9</div></div>"",""<div class = centerbox><div class = digit-span-text>2</div></div>"",""<div class = centerbox><div class = digit-span-text>8</div></div>"",""<div class = centerbox><div class = digit-span-text>1</div></div>""]","[-1]","none","[1000,1000,1000,1000,1000,1000,1000]","8400","0","test","4,5,7,9,2,8,1","7","","","","",""
"single-stim-button","96","654936","0.0-18.0-5.0","2053","1","digit-span","true","0","","23393","","","response","","","","","","23393","1000","test","4,5,7,9,2,8,1","7","SubmitButton","23393","1,2,9,7,5,4,2","reverse","false"
"html-keyboard-response","97","655939","0.0-19.0-0.0","2053","1","digit-span","true","0","","null","<div class = centerbox><div class = center-text>8 Digits</p></div>","null","test_intro","","","","","","","","","","","","","","",""
"poldrack-multi-stim-multi-response","98","666542","0.0-19.0-1.0","2053","1","digit-span","true","0","","[-1]","","","stim","","[""<div class = centerbox><div class = digit-span-text>6</div></div>"",""<div class = centerbox><div class = digit-span-text>9</div></div>"",""<div class = centerbox><div class = digit-span-text>1</div></div>"",""<div class = centerbox><div class = digit-span-text>6</div></div>"",""<div class = centerbox><div class = digit-span-text>3</div></div>"",""<div class = centerbox><div class = digit-span-text>2</div></div>"",""<div class = centerbox><div class = digit-span-text>5</div></div>"",""<div class = centerbox><div class = digit-span-text>8</div></div>""]","[-1]","none","[1000,1000,1000,1000,1000,1000,1000,1000]","9600","0","test","6,9,1,6,3,2,5,8","8","","","","",""
"single-stim-button","99","688252","0.0-19.0-2.0","2053","1","digit-span","true","0","","21708","","","response","","","","","","21708","1000","test","6,9,1,6,3,2,5,8","8","SubmitButton","21708","8,5,2,3,6,1,9,6","reverse","true"
"html-keyboard-response","100","689254","0.0-19.0-3.0","2053","1","digit-span","true","0","","null","<div class = centerbox><div class = center-text>8 Digits</p></div>","null","test_intro","","","","","","","","","","","","","","",""
"poldrack-multi-stim-multi-response","101","699857","0.0-19.0-4.0","2053","1","digit-span","true","0","","[-1]","","","stim","","[""<div class = centerbox><div class = digit-span-text>3</div></div>"",""<div class = centerbox><div class = digit-span-text>1</div></div>"",""<div class = centerbox><div class = digit-span-text>7</div></div>"",""<div class = centerbox><div class = digit-span-text>9</div></div>"",""<div class = centerbox><div class = digit-span-text>5</div></div>"",""<div class = centerbox><div class = digit-span-text>4</div></div>"",""<div class = centerbox><div class = digit-span-text>8</div></div>"",""<div class = centerbox><div class = digit-span-text>2</div></div>""]","[-1]","none","[1000,1000,1000,1000,1000,1000,1000,1000]","9600","0","test","3,1,7,9,5,4,8,2","8","","","","",""
"single-stim-button","102","722012","0.0-19.0-5.0","2053","1","digit-span","true","0","","22154","","","response","","","","","","22154","1000","test","3,1,7,9,5,4,8,2","8","SubmitButton","22154","2,8,4,5,9,7,1,3","reverse","true"
"image-keyboard-response","103","724274","0.0-20.0","2053","1","digit-span","true","0","","2259.100000143051","img/trophy2.jpeg","13","end","","","","","","","","","","","","","","",""
