"trial_type","trial_index","time_elapsed","internal_node_id","subject","exp_id","full_screen","focus_shifts","success","rt","stimulus","key_press","trial_id","view_history","stimuli","key_presses","possible_responses","stim_durations","block_duration","timing_post_trial","exp_stage","sequence","num_digits","mouse_click","stim_duration","response","condition","correct"
"pavlovia","0","2734","0.0-0.0","10501","digit-span","false","0","","","","","","","","","","","","","","","","","","","",""
"fullscreen","1","314240","0.0-1.0","10501","digit-span","true","1","true","","","","","","","","","","","","","","","","","","",""
"html-keyboard-response","2","319442","0.0-2.0-0.0","10501","digit-span","true","0","","5199.4000000059605","<div class = centerbox><p class = center-block-text>Welcome to the number game! It will take less than 5 minutes. Press <strong>""Enter/Return""</strong> to begin.</p></div>","13","instruction","","","","","","","","","","","","","","",""
"instructions","3","327165","0.0-2.0-1.0","10501","digit-span","true","0","","7722","","","instruction","[{""page_index"":0,""viewing_time"":7721.5999999940395}]","","","","","","","","","","","","","",""
"instructions","4","337876","0.0-2.0-2.0","10501","digit-span","true","0","","9707.59999999404","","","instruction","[{""page_index"":0,""viewing_time"":9707.300000011921}]","","","","","","","","","","","","","",""
"html-keyboard-response","5","339882","0.0-3.0-0.0","10501","digit-span","true","0","","null","<div class = centerbox><div class = center-text>2 Digits</p></div>","null","test_intro","","","","","","","","","","","","","","",""
"poldrack-multi-stim-multi-response","6","343294","0.0-3.0-1.0","10501","digit-span","true","0","","[-1]","","","stim","","[""<div class = centerbox><div class = digit-span-text>2</div></div>"",""<div class = centerbox><div class = digit-span-text>9</div></div>""]","[-1]","none","[1000,1000]","2400","0","test","2,9","2","","","","",""
"single-stim-button","7","347280","0.0-3.0-2.0","10501","digit-span","true","0","","3980","","","response","","","","","","3980","1000","test","2,9","2","SubmitButton","3980","2,9","forward","true"
"html-keyboard-response","8","348286","0.0-3.0-3.0","10501","digit-span","true","0","","null","<div class = centerbox><div class = center-text>2 Digits</p></div>","null","test_intro","","","","","","","","","","","","","","",""
"poldrack-multi-stim-multi-response","9","351695","0.0-3.0-4.0","10501","digit-span","true","0","","[-1]","","","stim","","[""<div class = centerbox><div class = digit-span-text>4</div></div>"",""<div class = centerbox><div class = digit-span-text>6</div></div>""]","[-1]","none","[1000,1000]","2400","0","test","4,6","2","","","","",""
"single-stim-button","10","354253","0.0-3.0-5.0","10501","digit-span","true","0","","2555","","","response","","","","","","2555","1000","test","4,6","2","SubmitButton","2555","4,6","forward","true"
"html-keyboard-response","11","355257","0.0-4.0-0.0","10501","digit-span","true","0","","null","<div class = centerbox><div class = center-text>3 Digits</p></div>","null","test_intro","","","","","","","","","","","","","","",""
"poldrack-multi-stim-multi-response","12","359866","0.0-4.0-1.0","10501","digit-span","true","0","","[-1]","","","stim","","[""<div class = centerbox><div class = digit-span-text>3</div></div>"",""<div class = centerbox><div class = digit-span-text>8</div></div>"",""<div class = centerbox><div class = digit-span-text>6</div></div>""]","[-1]","none","[1000,1000,1000]","3600","0","test","3,8,6","3","","","","",""
"single-stim-button","13","364586","0.0-4.0-2.0","10501","digit-span","true","0","","4718","","","response","","","","","","4718","1000","test","3,8,6","3","SubmitButton","4718","3,8,6","forward","true"
"html-keyboard-response","14","365592","0.0-4.0-3.0","10501","digit-span","true","0","","null","<div class = centerbox><div class = center-text>3 Digits</p></div>","null","test_intro","","","","","","","","","","","","","","",""
"poldrack-multi-stim-multi-response","15","370201","0.0-4.0-4.0","10501","digit-span","true","0","","[-1]","","","stim","","[""<div class = centerbox><div class = digit-span-text>6</div></div>"",""<div class = centerbox><div class = digit-span-text>1</div></div>"",""<div class = centerbox><div class = digit-span-text>2</div></div>""]","[-1]","none","[1000,1000,1000]","3600","0","test","6,1,2","3","","","","",""
"single-stim-button","16","374418","0.0-4.0-5.0","10501","digit-span","true","0","","4216","","","response","","","","","","4216","1000","test","6,1,2","3","SubmitButton","4216","6,1,2","forward","true"
"html-keyboard-response","17","375424","0.0-5.0-0.0","10501","digit-span","true","0","","null","<div class = centerbox><div class = center-text>4 Digits</p></div>","null","test_intro","","","","","","","","","","","","","","",""
"poldrack-multi-stim-multi-response","18","381230","0.0-5.0-1.0","10501","digit-span","true","0","","[-1]","","","stim","","[""<div class = centerbox><div class = digit-span-text>3</div></div>"",""<div class = centerbox><div class = digit-span-text>4</div></div>"",""<div class = centerbox><div class = digit-span-text>1</div></div>"",""<div class = centerbox><div class = digit-span-text>7</div></div>""]","[-1]","none","[1000,1000,1000,1000]","4800","0","test","3,4,1,7","4","","","","",""
"single-stim-button","19","384798","0.0-5.0-2.0","10501","digit-span","true","0","","3568","","","response","","","","","","3568","1000","test","3,4,1,7","4","SubmitButton","3568","3,4,1,7","forward","true"
"html-keyboard-response","20","385804","0.0-5.0-3.0","10501","digit-span","true","0","","null","<div class = centerbox><div class = center-text>4 Digits</p></div>","null","test_intro","","","","","","","","","","","","","","",""
"poldrack-multi-stim-multi-response","21","391612","0.0-5.0-4.0","10501","digit-span","true","0","","[-1]","","","stim","","[""<div class = centerbox><div class = digit-span-text>6</div></div>"",""<div class = centerbox><div class = digit-span-text>1</div></div>"",""<div class = centerbox><div class = digit-span-text>5</div></div>"",""<div class = centerbox><div class = digit-span-text>8</div></div>""]","[-1]","none","[1000,1000,1000,1000]","4800","0","test","6,1,5,8","4","","","","",""
"single-stim-button","22","395260","0.0-5.0-5.0","10501","digit-span","true","0","","3646","","","response","","","","","","3646","1000","test","6,1,5,8","4","SubmitButton","3646","6,1,5,8","forward","true"
"html-keyboard-response","23","396264","0.0-6.0-0.0","10501","digit-span","true","0","","null","<div class = centerbox><div class = center-text>5 Digits</p></div>","null","test_intro","","","","","","","","","","","","","","",""
"poldrack-multi-stim-multi-response","24","403272","0.0-6.0-1.0","10501","digit-span","true","0","","[-1]","","","stim","","[""<div class = centerbox><div class = digit-span-text>8</div></div>"",""<div class = centerbox><div class = digit-span-text>4</div></div>"",""<div class = centerbox><div class = digit-span-text>2</div></div>"",""<div class = centerbox><div class = digit-span-text>3</div></div>"",""<div class = centerbox><div class = digit-span-text>9</div></div>""]","[-1]","none","[1000,1000,1000,1000,1000]","6000","0","test","8,4,2,3,9","5","","","","",""
"single-stim-button","25","408030","0.0-6.0-2.0","10501","digit-span","true","0","","4757","","","response","","","","","","4757","1000","test","8,4,2,3,9","5","SubmitButton","4757","8,4,2,3,9","forward","true"
"html-keyboard-response","26","409036","0.0-6.0-3.0","10501","digit-span","true","0","","null","<div class = centerbox><div class = center-text>5 Digits</p></div>","null","test_intro","","","","","","","","","","","","","","",""
"poldrack-multi-stim-multi-response","27","416042","0.0-6.0-4.0","10501","digit-span","true","0","","[-1]","","","stim","","[""<div class = centerbox><div class = digit-span-text>5</div></div>"",""<div class = centerbox><div class = digit-span-text>2</div></div>"",""<div class = centerbox><div class = digit-span-text>1</div></div>"",""<div class = centerbox><div class = digit-span-text>8</div></div>"",""<div class = centerbox><div class = digit-span-text>6</div></div>""]","[-1]","none","[1000,1000,1000,1000,1000]","6000","0","test","5,2,1,8,6","5","","","","",""
"single-stim-button","28","419748","0.0-6.0-5.0","10501","digit-span","true","0","","3705","","","response","","","","","","3705","1000","test","5,2,1,8,6","5","SubmitButton","3705","5,2,1,8,6","forward","true"
"html-keyboard-response","29","420754","0.0-7.0-0.0","10501","digit-span","true","0","","null","<div class = centerbox><div class = center-text>6 Digits</p></div>","null","test_intro","","","","","","","","","","","","","","",""
"poldrack-multi-stim-multi-response","30","428960","0.0-7.0-1.0","10501","digit-span","true","0","","[-1]","","","stim","","[""<div class = centerbox><div class = digit-span-text>3</div></div>"",""<div class = centerbox><div class = digit-span-text>8</div></div>"",""<div class = centerbox><div class = digit-span-text>9</div></div>"",""<div class = centerbox><div class = digit-span-text>1</div></div>"",""<div class = centerbox><div class = digit-span-text>7</div></div>"",""<div class = centerbox><div class = digit-span-text>4</div></div>""]","[-1]","none","[1000,1000,1000,1000,1000,1000]","7200","0","test","3,8,9,1,7,4","6","","","","",""
"single-stim-button","31","434334","0.0-7.0-2.0","10501","digit-span","true","0","","5372","","","response","","","","","","5372","1000","test","3,8,9,1,7,4","6","SubmitButton","5372","3,8,9,1,7,4","forward","true"
"html-keyboard-response","32","435340","0.0-7.0-3.0","10501","digit-span","true","0","","null","<div class = centerbox><div class = center-text>6 Digits</p></div>","null","test_intro","","","","","","","","","","","","","","",""
"poldrack-multi-stim-multi-response","33","443548","0.0-7.0-4.0","10501","digit-span","true","0","","[-1]","","","stim","","[""<div class = centerbox><div class = digit-span-text>7</div></div>"",""<div class = centerbox><div class = digit-span-text>9</div></div>"",""<div class = centerbox><div class = digit-span-text>6</div></div>"",""<div class = centerbox><div class = digit-span-text>4</div></div>"",""<div class = centerbox><div class = digit-span-text>8</div></div>"",""<div class = centerbox><div class = digit-span-text>3</div></div>""]","[-1]","none","[1000,1000,1000,1000,1000,1000]","7200","0","test","7,9,6,4,8,3","6","","","","",""
"single-stim-button","34","449023","0.0-7.0-5.0","10501","digit-span","true","0","","5473","","","response","","","","","","5473","1000","test","7,9,6,4,8,3","6","SubmitButton","5473","7,9,6,4,8,3","forward","true"
"html-keyboard-response","35","450028","0.0-8.0-0.0","10501","digit-span","true","0","","null","<div class = centerbox><div class = center-text>7 Digits</p></div>","null","test_intro","","","","","","","","","","","","","","",""
"poldrack-multi-stim-multi-response","36","459434","0.0-8.0-1.0","10501","digit-span","true","0","","[-1]","","","stim","","[""<div class = centerbox><div class = digit-span-text>5</div></div>"",""<div class = centerbox><div class = digit-span-text>1</div></div>"",""<div class = centerbox><div class = digit-span-text>7</div></div>"",""<div class = centerbox><div class = digit-span-text>4</div></div>"",""<div class = centerbox><div class = digit-span-text>2</div></div>"",""<div class = centerbox><div class = digit-span-text>3</div></div>"",""<div class = centerbox><div class = digit-span-text>8</div></div>""]","[-1]","none","[1000,1000,1000,1000,1000,1000,1000]","8400","0","test","5,1,7,4,2,3,8","7","","","","",""
"single-stim-button","37","466631","0.0-8.0-2.0","10501","digit-span","true","0","","7196","","","response","","","","","","7196","1000","test","5,1,7,4,2,3,8","7","SubmitButton","7196","5,1,7,4,2,3,8","forward","true"
"html-keyboard-response","38","467636","0.0-8.0-3.0","10501","digit-span","true","0","","null","<div class = centerbox><div class = center-text>7 Digits</p></div>","null","test_intro","","","","","","","","","","","","","","",""
"poldrack-multi-stim-multi-response","39","477044","0.0-8.0-4.0","10501","digit-span","true","0","","[-1]","","","stim","","[""<div class = centerbox><div class = digit-span-text>9</div></div>"",""<div class = centerbox><div class = digit-span-text>8</div></div>"",""<div class = centerbox><div class = digit-span-text>5</div></div>"",""<div class = centerbox><div class = digit-span-text>2</div></div>"",""<div class = centerbox><div class = digit-span-text>1</div></div>"",""<div class = centerbox><div class = digit-span-text>6</div></div>"",""<div class = centerbox><div class = digit-span-text>3</div></div>""]","[-1]","none","[1000,1000,1000,1000,1000,1000,1000]","8400","0","test","9,8,5,2,1,6,3","7","","","","",""
"single-stim-button","40","486274","0.0-8.0-5.0","10501","digit-span","true","0","","9228","","","response","","","","","","9228","1000","test","9,8,5,2,1,6,3","7","SubmitButton","9228","9,8,5,2,1,6,3","forward","true"
"html-keyboard-response","41","487280","0.0-9.0-0.0","10501","digit-span","true","0","","null","<div class = centerbox><div class = center-text>8 Digits</p></div>","null","test_intro","","","","","","","","","","","","","","",""
"poldrack-multi-stim-multi-response","42","497886","0.0-9.0-1.0","10501","digit-span","true","0","","[-1]","","","stim","","[""<div class = centerbox><div class = digit-span-text>1</div></div>"",""<div class = centerbox><div class = digit-span-text>6</div></div>"",""<div class = centerbox><div class = digit-span-text>4</div></div>"",""<div class = centerbox><div class = digit-span-text>5</div></div>"",""<div class = centerbox><div class = digit-span-text>9</div></div>"",""<div class = centerbox><div class = digit-span-text>7</div></div>"",""<div class = centerbox><div class = digit-span-text>6</div></div>"",""<div class = centerbox><div class = digit-span-text>3</div></div>""]","[-1]","none","[1000,1000,1000,1000,1000,1000,1000,1000]","9600","0","test","1,6,4,5,9,7,6,3","8","","","","",""
"single-stim-button","43","507978","0.0-9.0-2.0","10501","digit-span","true","0","","10091","","","response","","","","","","10091","1000","test","1,6,4,5,9,7,6,3","8","SubmitButton","10091","1,6,4,5,9,7,6,3","forward","true"
"html-keyboard-response","44","508984","0.0-9.0-3.0","10501","digit-span","true","0","","null","<div class = centerbox><div class = center-text>8 Digits</p></div>","null","test_intro","","","","","","","","","","","","","","",""
"poldrack-multi-stim-multi-response","45","519589","0.0-9.0-4.0","10501","digit-span","true","0","","[-1]","","","stim","","[""<div class = centerbox><div class = digit-span-text>2</div></div>"",""<div class = centerbox><div class = digit-span-text>9</div></div>"",""<div class = centerbox><div class = digit-span-text>7</div></div>"",""<div class = centerbox><div class = digit-span-text>6</div></div>"",""<div class = centerbox><div class = digit-span-text>3</div></div>"",""<div class = centerbox><div class = digit-span-text>1</div></div>"",""<div class = centerbox><div class = digit-span-text>5</div></div>"",""<div class = centerbox><div class = digit-span-text>4</div></div>""]","[-1]","none","[1000,1000,1000,1000,1000,1000,1000,1000]","9600","0","test","2,9,7,6,3,1,5,4","8","","","","",""
"single-stim-button","46","526369","0.0-9.0-5.0","10501","digit-span","true","0","","6779","","","response","","","","","","6779","1000","test","2,9,7,6,3,1,5,4","8","SubmitButton","6779","2,9,7,6,3,1,5,4","forward","true"
"html-keyboard-response","47","527374","0.0-10.0-0.0","10501","digit-span","true","0","","null","<div class = centerbox><div class = center-text>9 Digits</p></div>","null","test_intro","","","","","","","","","","","","","","",""
"poldrack-multi-stim-multi-response","48","539181","0.0-10.0-1.0","10501","digit-span","true","0","","[-1]","","","stim","","[""<div class = centerbox><div class = digit-span-text>5</div></div>"",""<div class = centerbox><div class = digit-span-text>3</div></div>"",""<div class = centerbox><div class = digit-span-text>8</div></div>"",""<div class = centerbox><div class = digit-span-text>7</div></div>"",""<div class = centerbox><div class = digit-span-text>1</div></div>"",""<div class = centerbox><div class = digit-span-text>2</div></div>"",""<div class = centerbox><div class = digit-span-text>4</div></div>"",""<div class = centerbox><div class = digit-span-text>6</div></div>"",""<div class = centerbox><div class = digit-span-text>9</div></div>""]","[-1]","none","[1000,1000,1000,1000,1000,1000,1000,1000,1000]","10800","0","test","5,3,8,7,1,2,4,6,9","9","","","","",""
"single-stim-button","49","547322","0.0-10.0-2.0","10501","digit-span","true","0","","8139","","","response","","","","","","8139","1000","test","5,3,8,7,1,2,4,6,9","9","SubmitButton","8139","5,3,8,7,1,2,4,6,9","forward","true"
"html-keyboard-response","50","548323","0.0-10.0-3.0","10501","digit-span","true","0","","null","<div class = centerbox><div class = center-text>9 Digits</p></div>","null","test_intro","","","","","","","","","","","","","","",""
"poldrack-multi-stim-multi-response","51","560131","0.0-10.0-4.0","10501","digit-span","true","0","","[-1]","","","stim","","[""<div class = centerbox><div class = digit-span-text>4</div></div>"",""<div class = centerbox><div class = digit-span-text>2</div></div>"",""<div class = centerbox><div class = digit-span-text>6</div></div>"",""<div class = centerbox><div class = digit-span-text>9</div></div>"",""<div class = centerbox><div class = digit-span-text>1</div></div>"",""<div class = centerbox><div class = digit-span-text>7</div></div>"",""<div class = centerbox><div class = digit-span-text>8</div></div>"",""<div class = centerbox><div class = digit-span-text>3</div></div>"",""<div class = centerbox><div class = digit-span-text>5</div></div>""]","[-1]","none","[1000,1000,1000,1000,1000,1000,1000,1000,1000]","10800","0","test","4,2,6,9,1,7,8,3,5","9","","","","",""
"single-stim-button","52","570794","0.0-10.0-5.0","10501","digit-span","true","0","","10663","","","response","","","","","","10663","1000","test","4,2,6,9,1,7,8,3,5","9","SubmitButton","10663","4,2,6,9,1,7,8,3,5","forward","true"
"html-keyboard-response","53","582075","0.0-11.0","10501","digit-span","true","0","","11279.200000017881","<div class = centerbox><p class = block-text>Now, you will see some numbers, but this time you will enter them <strong>backward</strong>.<br><br>For example, you see <strong>“1—5”</strong>, and you will enter <strong>“5—1”</strong>.<br><br><br>Press <strong>""Enter/Return""</strong> to begin.</p></div>","13","start_reverse","","","","","","","","","","","","","","",""
"html-keyboard-response","54","583078","0.0-12.0-0.0","10501","digit-span","true","0","","null","<div class = centerbox><div class = center-text>2 Digits</p></div>","null","test_intro","","","","","","","","","","","","","","",""
"poldrack-multi-stim-multi-response","55","586486","0.0-12.0-1.0","10501","digit-span","true","0","","[-1]","","","stim","","[""<div class = centerbox><div class = digit-span-text>8</div></div>"",""<div class = centerbox><div class = digit-span-text>2</div></div>""]","[-1]","none","[1000,1000]","2400","0","test","8,2","2","","","","",""
"single-stim-button","56","588751","0.0-12.0-2.0","10501","digit-span","true","0","","2265","","","response","","","","","","2265","1000","test","8,2","2","SubmitButton","2265","2,8","practice","true"
"html-keyboard-response","57","598752","0.0-12.0-3.0","10501","digit-span","true","0","","null","<div class = centerbox><div class = center-block-text><span style=""color:green"">Correct!</span></div></div>","null","feedback","","","","","","","","","","","","","","",""
"html-keyboard-response","58","599755","0.0-12.0-4.0","10501","digit-span","true","0","","null","<div class = centerbox><div class = center-text>2 Digits</p></div>","null","test_intro","","","","","","","","","","","","","","",""
"poldrack-multi-stim-multi-response","59","603163","0.0-12.0-5.0","10501","digit-span","true","0","","[-1]","","","stim","","[""<div class = centerbox><div class = digit-span-text>5</div></div>"",""<div class = centerbox><div class = digit-span-text>6</div></div>""]","[-1]","none","[1000,1000]","2400","0","test","5,6","2","","","","",""
"single-stim-button","60","607708","0.0-12.0-6.0","10501","digit-span","true","0","","4544","","","response","","","","","","4544","1000","test","5,6","2","SubmitButton","4544","6,5","practice","true"
"html-keyboard-response","61","608712","0.0-13.0-0.0","10501","digit-span","true","0","","null","<div class = centerbox><div class = center-text>2 Digits</p></div>","null","test_intro","","","","","","","","","","","","","","",""
"poldrack-multi-stim-multi-response","62","612120","0.0-13.0-1.0","10501","digit-span","true","0","","[-1]","","","stim","","[""<div class = centerbox><div class = digit-span-text>2</div></div>"",""<div class = centerbox><div class = digit-span-text>5</div></div>""]","[-1]","none","[1000,1000]","2400","0","test","2,5","2","","","","",""
"single-stim-button","63","614660","0.0-13.0-2.0","10501","digit-span","true","0","","2539","","","response","","","","","","2539","1000","test","2,5","2","SubmitButton","2539","5,2","reverse","true"
"html-keyboard-response","64","615662","0.0-13.0-3.0","10501","digit-span","true","0","","null","<div class = centerbox><div class = center-text>2 Digits</p></div>","null","test_intro","","","","","","","","","","","","","","",""
"poldrack-multi-stim-multi-response","65","619068","0.0-13.0-4.0","10501","digit-span","true","0","","[-1]","","","stim","","[""<div class = centerbox><div class = digit-span-text>6</div></div>"",""<div class = centerbox><div class = digit-span-text>3</div></div>""]","[-1]","none","[1000,1000]","2400","0","test","6,3","2","","","","",""
"single-stim-button","66","621576","0.0-13.0-5.0","10501","digit-span","true","0","","2507","","","response","","","","","","2507","1000","test","6,3","2","SubmitButton","2507","3,6","reverse","true"
"html-keyboard-response","67","622579","0.0-14.0-0.0","10501","digit-span","true","0","","null","<div class = centerbox><div class = center-text>3 Digits</p></div>","null","test_intro","","","","","","","","","","","","","","",""
"poldrack-multi-stim-multi-response","68","627188","0.0-14.0-1.0","10501","digit-span","true","0","","[-1]","","","stim","","[""<div class = centerbox><div class = digit-span-text>5</div></div>"",""<div class = centerbox><div class = digit-span-text>7</div></div>"",""<div class = centerbox><div class = digit-span-text>4</div></div>""]","[-1]","none","[1000,1000,1000]","3600","0","test","5,7,4","3","","","","",""
"single-stim-button","69","631404","0.0-14.0-2.0","10501","digit-span","true","0","","4214","","","response","","","","","","4214","1000","test","5,7,4","3","SubmitButton","4214","4,7,5","reverse","true"
"html-keyboard-response","70","632407","0.0-14.0-3.0","10501","digit-span","true","0","","null","<div class = centerbox><div class = center-text>3 Digits</p></div>","null","test_intro","","","","","","","","","","","","","","",""
"poldrack-multi-stim-multi-response","71","637017","0.0-14.0-4.0","10501","digit-span","true","0","","[-1]","","","stim","","[""<div class = centerbox><div class = digit-span-text>2</div></div>"",""<div class = centerbox><div class = digit-span-text>5</div></div>"",""<div class = centerbox><div class = digit-span-text>9</div></div>""]","[-1]","none","[1000,1000,1000]","3600","0","test","2,5,9","3","","","","",""
"single-stim-button","72","640684","0.0-14.0-5.0","10501","digit-span","true","0","","3664","","","response","","","","","","3664","1000","test","2,5,9","3","SubmitButton","3664","9,5,2","reverse","true"
"html-keyboard-response","73","641689","0.0-15.0-0.0","10501","digit-span","true","0","","null","<div class = centerbox><div class = center-text>4 Digits</p></div>","null","test_intro","","","","","","","","","","","","","","",""
"poldrack-multi-stim-multi-response","74","647500","0.0-15.0-1.0","10501","digit-span","true","0","","[-1]","","","stim","","[""<div class = centerbox><div class = digit-span-text>7</div></div>"",""<div class = centerbox><div class = digit-span-text>2</div></div>"",""<div class = centerbox><div class = digit-span-text>9</div></div>"",""<div class = centerbox><div class = digit-span-text>6</div></div>""]","[-1]","none","[1000,1000,1000,1000]","4800","0","test","7,2,9,6","4","","","","",""
"single-stim-button","75","656210","0.0-15.0-2.0","10501","digit-span","true","0","","8709","","","response","","","","","","8709","1000","test","7,2,9,6","4","SubmitButton","8709","6,9,2,7","reverse","true"
"html-keyboard-response","76","657212","0.0-15.0-3.0","10501","digit-span","true","0","","null","<div class = centerbox><div class = center-text>4 Digits</p></div>","null","test_intro","","","","","","","","","","","","","","",""
"poldrack-multi-stim-multi-response","77","663017","0.0-15.0-4.0","10501","digit-span","true","0","","[-1]","","","stim","","[""<div class = centerbox><div class = digit-span-text>8</div></div>"",""<div class = centerbox><div class = digit-span-text>4</div></div>"",""<div class = centerbox><div class = digit-span-text>9</div></div>"",""<div class = centerbox><div class = digit-span-text>3</div></div>""]","[-1]","none","[1000,1000,1000,1000]","4800","0","test","8,4,9,3","4","","","","",""
"single-stim-button","78","670743","0.0-15.0-5.0","10501","digit-span","true","0","","7725","","","response","","","","","","7725","1000","test","8,4,9,3","4","SubmitButton","7725","3,9,4,8","reverse","true"
"html-keyboard-response","79","671747","0.0-16.0-0.0","10501","digit-span","true","0","","null","<div class = centerbox><div class = center-text>5 Digits</p></div>","null","test_intro","","","","","","","","","","","","","","",""
"poldrack-multi-stim-multi-response","80","678754","0.0-16.0-1.0","10501","digit-span","true","0","","[-1]","","","stim","","[""<div class = centerbox><div class = digit-span-text>4</div></div>"",""<div class = centerbox><div class = digit-span-text>1</div></div>"",""<div class = centerbox><div class = digit-span-text>3</div></div>"",""<div class = centerbox><div class = digit-span-text>5</div></div>"",""<div class = centerbox><div class = digit-span-text>7</div></div>""]","[-1]","none","[1000,1000,1000,1000,1000]","6000","0","test","4,1,3,5,7","5","","","","",""
"single-stim-button","81","690530","0.0-16.0-2.0","10501","digit-span","true","0","","11776","","","response","","","","","","11776","1000","test","4,1,3,5,7","5","SubmitButton","11776","7,5,3,1,4","reverse","true"
"html-keyboard-response","82","691533","0.0-16.0-3.0","10501","digit-span","true","0","","null","<div class = centerbox><div class = center-text>5 Digits</p></div>","null","test_intro","","","","","","","","","","","","","","",""
"poldrack-multi-stim-multi-response","83","698537","0.0-16.0-4.0","10501","digit-span","true","0","","[-1]","","","stim","","[""<div class = centerbox><div class = digit-span-text>9</div></div>"",""<div class = centerbox><div class = digit-span-text>7</div></div>"",""<div class = centerbox><div class = digit-span-text>8</div></div>"",""<div class = centerbox><div class = digit-span-text>5</div></div>"",""<div class = centerbox><div class = digit-span-text>2</div></div>""]","[-1]","none","[1000,1000,1000,1000,1000]","6000","0","test","9,7,8,5,2","5","","","","",""
"single-stim-button","84","705013","0.0-16.0-5.0","10501","digit-span","true","0","","6473","","","response","","","","","","6473","1000","test","9,7,8,5,2","5","SubmitButton","6473","2,5,8,7,9","reverse","true"
"html-keyboard-response","85","706019","0.0-17.0-0.0","10501","digit-span","true","0","","null","<div class = centerbox><div class = center-text>6 Digits</p></div>","null","test_intro","","","","","","","","","","","","","","",""
"poldrack-multi-stim-multi-response","86","714223","0.0-17.0-1.0","10501","digit-span","true","0","","[-1]","","","stim","","[""<div class = centerbox><div class = digit-span-text>1</div></div>"",""<div class = centerbox><div class = digit-span-text>6</div></div>"",""<div class = centerbox><div class = digit-span-text>5</div></div>"",""<div class = centerbox><div class = digit-span-text>2</div></div>"",""<div class = centerbox><div class = digit-span-text>9</div></div>"",""<div class = centerbox><div class = digit-span-text>8</div></div>""]","[-1]","none","[1000,1000,1000,1000,1000,1000]","7200","0","test","1,6,5,2,9,8","6","","","","",""
"single-stim-button","87","725047","0.0-17.0-2.0","10501","digit-span","true","0","","10822","","","response","","","","","","10822","1000","test","1,6,5,2,9,8","6","SubmitButton","10822","8,9,2,5,6,1","reverse","true"
"html-keyboard-response","88","726052","0.0-17.0-3.0","10501","digit-span","true","0","","null","<div class = centerbox><div class = center-text>6 Digits</p></div>","null","test_intro","","","","","","","","","","","","","","",""
"poldrack-multi-stim-multi-response","89","734257","0.0-17.0-4.0","10501","digit-span","true","0","","[-1]","","","stim","","[""<div class = centerbox><div class = digit-span-text>3</div></div>"",""<div class = centerbox><div class = digit-span-text>6</div></div>"",""<div class = centerbox><div class = digit-span-text>7</div></div>"",""<div class = centerbox><div class = digit-span-text>1</div></div>"",""<div class = centerbox><div class = digit-span-text>9</div></div>"",""<div class = centerbox><div class = digit-span-text>4</div></div>""]","[-1]","none","[1000,1000,1000,1000,1000,1000]","7200","0","test","3,6,7,1,9,4","6","","","","",""
"single-stim-button","90","743372","0.0-17.0-5.0","10501","digit-span","true","0","","9113","","","response","","","","","","9113","1000","test","3,6,7,1,9,4","6","SubmitButton","9113","4,9,1,7,6,3","reverse","true"
"html-keyboard-response","91","744378","0.0-18.0-0.0","10501","digit-span","true","0","","null","<div class = centerbox><div class = center-text>7 Digits</p></div>","null","test_intro","","","","","","","","","","","","","","",""
"poldrack-multi-stim-multi-response","92","753781","0.0-18.0-1.0","10501","digit-span","true","0","","[-1]","","","stim","","[""<div class = centerbox><div class = digit-span-text>8</div></div>"",""<div class = centerbox><div class = digit-span-text>5</div></div>"",""<div class = centerbox><div class = digit-span-text>9</div></div>"",""<div class = centerbox><div class = digit-span-text>2</div></div>"",""<div class = centerbox><div class = digit-span-text>3</div></div>"",""<div class = centerbox><div class = digit-span-text>4</div></div>"",""<div class = centerbox><div class = digit-span-text>2</div></div>""]","[-1]","none","[1000,1000,1000,1000,1000,1000,1000]","8400","0","test","8,5,9,2,3,4,2","7","","","","",""
"single-stim-button","93","793660","0.0-18.0-2.0","10501","digit-span","true","0","","39876","","","response","","","","","","39876","1000","test","8,5,9,2,3,4,2","7","SubmitButton","39876","2,4,3,2,9,5,8","reverse","true"
"html-keyboard-response","94","794666","0.0-18.0-3.0","10501","digit-span","true","0","","null","<div class = centerbox><div class = center-text>7 Digits</p></div>","null","test_intro","","","","","","","","","","","","","","",""
"poldrack-multi-stim-multi-response","95","804070","0.0-18.0-4.0","10501","digit-span","true","0","","[-1]","","","stim","","[""<div class = centerbox><div class = digit-span-text>4</div></div>"",""<div class = centerbox><div class = digit-span-text>5</div></div>"",""<div class = centerbox><div class = digit-span-text>7</div></div>"",""<div class = centerbox><div class = digit-span-text>9</div></div>"",""<div class = centerbox><div class = digit-span-text>2</div></div>"",""<div class = centerbox><div class = digit-span-text>8</div></div>"",""<div class = centerbox><div class = digit-span-text>1</div></div>""]","[-1]","none","[1000,1000,1000,1000,1000,1000,1000]","8400","0","test","4,5,7,9,2,8,1","7","","","","",""
"single-stim-button","96","821219","0.0-18.0-5.0","10501","digit-span","true","0","","17149","","","response","","","","","","17149","1000","test","4,5,7,9,2,8,1","7","SubmitButton","17149","1,8,2,9,7,5,4","reverse","true"
"html-keyboard-response","97","822222","0.0-19.0-0.0","10501","digit-span","true","0","","null","<div class = centerbox><div class = center-text>8 Digits</p></div>","null","test_intro","","","","","","","","","","","","","","",""
"poldrack-multi-stim-multi-response","98","832827","0.0-19.0-1.0","10501","digit-span","true","0","","[-1]","","","stim","","[""<div class = centerbox><div class = digit-span-text>6</div></div>"",""<div class = centerbox><div class = digit-span-text>9</div></div>"",""<div class = centerbox><div class = digit-span-text>1</div></div>"",""<div class = centerbox><div class = digit-span-text>6</div></div>"",""<div class = centerbox><div class = digit-span-text>3</div></div>"",""<div class = centerbox><div class = digit-span-text>2</div></div>"",""<div class = centerbox><div class = digit-span-text>5</div></div>"",""<div class = centerbox><div class = digit-span-text>8</div></div>""]","[-1]","none","[1000,1000,1000,1000,1000,1000,1000,1000]","9600","0","test","6,9,1,6,3,2,5,8","8","","","","",""
"single-stim-button","99","854256","0.0-19.0-2.0","10501","digit-span","true","0","","21427","","","response","","","","","","21427","1000","test","6,9,1,6,3,2,5,8","8","SubmitButton","21427","8,5,2,3,6,1,9,6","reverse","true"
"html-keyboard-response","100","855257","0.0-19.0-3.0","10501","digit-span","true","0","","null","<div class = centerbox><div class = center-text>8 Digits</p></div>","null","test_intro","","","","","","","","","","","","","","",""
"poldrack-multi-stim-multi-response","101","865863","0.0-19.0-4.0","10501","digit-span","true","0","","[-1]","","","stim","","[""<div class = centerbox><div class = digit-span-text>3</div></div>"",""<div class = centerbox><div class = digit-span-text>1</div></div>"",""<div class = centerbox><div class = digit-span-text>7</div></div>"",""<div class = centerbox><div class = digit-span-text>9</div></div>"",""<div class = centerbox><div class = digit-span-text>5</div></div>"",""<div class = centerbox><div class = digit-span-text>4</div></div>"",""<div class = centerbox><div class = digit-span-text>8</div></div>"",""<div class = centerbox><div class = digit-span-text>2</div></div>""]","[-1]","none","[1000,1000,1000,1000,1000,1000,1000,1000]","9600","0","test","3,1,7,9,5,4,8,2","8","","","","",""
"single-stim-button","102","883503","0.0-19.0-5.0","10501","digit-span","true","0","","17639","","","response","","","","","","17639","1000","test","3,1,7,9,5,4,8,2","8","SubmitButton","17639","2,8,4,5,9,7,1,3","reverse","true"
"image-keyboard-response","103","885015","0.0-20.0","10501","digit-span","true","0","","1509.699999988079","img/trophy2.jpeg","13","end","","","","","","","","","","","","","","",""
