"trial_type","trial_index","time_elapsed","internal_node_id","subject","exp_id","full_screen","focus_shifts","success","rt","stimulus","key_press","trial_id","view_history","stimuli","key_presses","possible_responses","stim_durations","block_duration","timing_post_trial","exp_stage","sequence","num_digits","mouse_click","stim_duration","response","condition","correct"
"pavlovia","0","2741","0.0-0.0","100501","digit-span","true","0","","","","","","","","","","","","","","","","","","","",""
"fullscreen","1","35988","0.0-1.0","100501","digit-span","true","0","true","","","","","","","","","","","","","","","","","","",""
"html-keyboard-response","2","49530","0.0-2.0-0.0","100501","digit-span","true","0","","13541.100000143051","<div class = centerbox><p class = center-block-text>Welcome to the number game! It will take less than 5 minutes. Press <strong>""Enter/Return""</strong> to begin.</p></div>","13","instruction","","","","","","","","","","","","","","",""
"instructions","3","51210","0.0-2.0-1.0","100501","digit-span","true","0","","1679.0999999046326","","","instruction","[{""page_index"":0,""viewing_time"":1678.9000000953674}]","","","","","","","","","","","","","",""
"instructions","4","52898","0.0-2.0-2.0","100501","digit-span","true","0","","686.2999999523163","","","instruction","[{""page_index"":0,""viewing_time"":686.1000001430511}]","","","","","","","","","","","","","",""
"html-keyboard-response","5","54901","0.0-3.0-0.0","100501","digit-span","true","0","","null","<div class = centerbox><div class = center-text>2 Digits</p></div>","null","test_intro","","","","","","","","","","","","","","",""
"poldrack-multi-stim-multi-response","6","58307","0.0-3.0-1.0","100501","digit-span","true","0","","[-1]","","","stim","","[""<div class = centerbox><div class = digit-span-text>2</div></div>"",""<div class = centerbox><div class = digit-span-text>9</div></div>""]","[-1]","none","[1000,1000]","2400","0","test","2,9","2","","","","",""
"single-stim-button","7","61540","0.0-3.0-2.0","100501","digit-span","true","0","","3231","","","response","","","","","","3231","1000","test","2,9","2","SubmitButton","3231","2,9","forward","true"
"html-keyboard-response","8","62541","0.0-3.0-3.0","100501","digit-span","true","0","","null","<div class = centerbox><div class = center-text>2 Digits</p></div>","null","test_intro","","","","","","","","","","","","","","",""
"poldrack-multi-stim-multi-response","9","65944","0.0-3.0-4.0","100501","digit-span","true","0","","[-1]","","","stim","","[""<div class = centerbox><div class = digit-span-text>4</div></div>"",""<div class = centerbox><div class = digit-span-text>6</div></div>""]","[-1]","none","[1000,1000]","2400","0","test","4,6","2","","","","",""
"single-stim-button","10","73219","0.0-3.0-5.0","100501","digit-span","true","0","","7275","","","response","","","","","","7275","1000","test","4,6","2","SubmitButton","7275","4,6","forward","true"
"html-keyboard-response","11","74222","0.0-4.0-0.0","100501","digit-span","true","0","","null","<div class = centerbox><div class = center-text>3 Digits</p></div>","null","test_intro","","","","","","","","","","","","","","",""
"poldrack-multi-stim-multi-response","12","78824","0.0-4.0-1.0","100501","digit-span","true","0","","[-1]","","","stim","","[""<div class = centerbox><div class = digit-span-text>3</div></div>"",""<div class = centerbox><div class = digit-span-text>8</div></div>"",""<div class = centerbox><div class = digit-span-text>6</div></div>""]","[-1]","none","[1000,1000,1000]","3600","0","test","3,8,6","3","","","","",""
"single-stim-button","13","81779","0.0-4.0-2.0","100501","digit-span","true","0","","2955","","","response","","","","","","2955","1000","test","3,8,6","3","SubmitButton","2955","3,8,6","forward","true"
"html-keyboard-response","14","82781","0.0-4.0-3.0","100501","digit-span","true","0","","null","<div class = centerbox><div class = center-text>3 Digits</p></div>","null","test_intro","","","","","","","","","","","","","","",""
"poldrack-multi-stim-multi-response","15","87385","0.0-4.0-4.0","100501","digit-span","true","0","","[-1]","","","stim","","[""<div class = centerbox><div class = digit-span-text>6</div></div>"",""<div class = centerbox><div class = digit-span-text>1</div></div>"",""<div class = centerbox><div class = digit-span-text>2</div></div>""]","[-1]","none","[1000,1000,1000]","3600","0","test","6,1,2","3","","","","",""
"single-stim-button","16","89211","0.0-4.0-5.0","100501","digit-span","true","0","","1825","","","response","","","","","","1825","1000","test","6,1,2","3","SubmitButton","1825","6,1,2","forward","true"
"html-keyboard-response","17","90212","0.0-5.0-0.0","100501","digit-span","true","0","","null","<div class = centerbox><div class = center-text>4 Digits</p></div>","null","test_intro","","","","","","","","","","","","","","",""
"poldrack-multi-stim-multi-response","18","96016","0.0-5.0-1.0","100501","digit-span","true","0","","[-1]","","","stim","","[""<div class = centerbox><div class = digit-span-text>3</div></div>"",""<div class = centerbox><div class = digit-span-text>4</div></div>"",""<div class = centerbox><div class = digit-span-text>1</div></div>"",""<div class = centerbox><div class = digit-span-text>7</div></div>""]","[-1]","none","[1000,1000,1000,1000]","4800","0","test","3,4,1,7","4","","","","",""
"single-stim-button","19","98531","0.0-5.0-2.0","100501","digit-span","true","0","","2515","","","response","","","","","","2515","1000","test","3,4,1,7","4","SubmitButton","2515","3,4,1,7","forward","true"
"html-keyboard-response","20","99533","0.0-5.0-3.0","100501","digit-span","true","0","","null","<div class = centerbox><div class = center-text>4 Digits</p></div>","null","test_intro","","","","","","","","","","","","","","",""
"poldrack-multi-stim-multi-response","21","105336","0.0-5.0-4.0","100501","digit-span","true","0","","[-1]","","","stim","","[""<div class = centerbox><div class = digit-span-text>6</div></div>"",""<div class = centerbox><div class = digit-span-text>1</div></div>"",""<div class = centerbox><div class = digit-span-text>5</div></div>"",""<div class = centerbox><div class = digit-span-text>8</div></div>""]","[-1]","none","[1000,1000,1000,1000]","4800","0","test","6,1,5,8","4","","","","",""
"single-stim-button","22","107883","0.0-5.0-5.0","100501","digit-span","true","0","","2545","","","response","","","","","","2545","1000","test","6,1,5,8","4","SubmitButton","2545","3,6,1,8","forward","false"
"html-keyboard-response","23","108885","0.0-6.0-0.0","100501","digit-span","true","0","","null","<div class = centerbox><div class = center-text>5 Digits</p></div>","null","test_intro","","","","","","","","","","","","","","",""
"poldrack-multi-stim-multi-response","24","115888","0.0-6.0-1.0","100501","digit-span","true","0","","[-1]","","","stim","","[""<div class = centerbox><div class = digit-span-text>8</div></div>"",""<div class = centerbox><div class = digit-span-text>4</div></div>"",""<div class = centerbox><div class = digit-span-text>2</div></div>"",""<div class = centerbox><div class = digit-span-text>3</div></div>"",""<div class = centerbox><div class = digit-span-text>9</div></div>""]","[-1]","none","[1000,1000,1000,1000,1000]","6000","0","test","8,4,2,3,9","5","","","","",""
"single-stim-button","25","118683","0.0-6.0-2.0","100501","digit-span","true","0","","2795","","","response","","","","","","2795","1000","test","8,4,2,3,9","5","SubmitButton","2795","8,4,2,3,9","forward","true"
"html-keyboard-response","26","119684","0.0-6.0-3.0","100501","digit-span","true","0","","null","<div class = centerbox><div class = center-text>5 Digits</p></div>","null","test_intro","","","","","","","","","","","","","","",""
"poldrack-multi-stim-multi-response","27","126686","0.0-6.0-4.0","100501","digit-span","true","0","","[-1]","","","stim","","[""<div class = centerbox><div class = digit-span-text>5</div></div>"",""<div class = centerbox><div class = digit-span-text>2</div></div>"",""<div class = centerbox><div class = digit-span-text>1</div></div>"",""<div class = centerbox><div class = digit-span-text>8</div></div>"",""<div class = centerbox><div class = digit-span-text>6</div></div>""]","[-1]","none","[1000,1000,1000,1000,1000]","6000","0","test","5,2,1,8,6","5","","","","",""
"single-stim-button","28","129043","0.0-6.0-5.0","100501","digit-span","true","0","","2356","","","response","","","","","","2356","1000","test","5,2,1,8,6","5","SubmitButton","2356","5,2,1,8,6","forward","true"
"html-keyboard-response","29","130045","0.0-7.0-0.0","100501","digit-span","true","0","","null","<div class = centerbox><div class = center-text>6 Digits</p></div>","null","test_intro","","","","","","","","","","","","","","",""
"poldrack-multi-stim-multi-response","30","138248","0.0-7.0-1.0","100501","digit-span","true","0","","[-1]","","","stim","","[""<div class = centerbox><div class = digit-span-text>3</div></div>"",""<div class = centerbox><div class = digit-span-text>8</div></div>"",""<div class = centerbox><div class = digit-span-text>9</div></div>"",""<div class = centerbox><div class = digit-span-text>1</div></div>"",""<div class = centerbox><div class = digit-span-text>7</div></div>"",""<div class = centerbox><div class = digit-span-text>4</div></div>""]","[-1]","none","[1000,1000,1000,1000,1000,1000]","7200","0","test","3,8,9,1,7,4","6","","","","",""
"single-stim-button","31","142355","0.0-7.0-2.0","100501","digit-span","true","0","","4106","","","response","","","","","","4106","1000","test","3,8,9,1,7,4","6","SubmitButton","4106","3,8,9,1,7,4","forward","true"
"html-keyboard-response","32","143357","0.0-7.0-3.0","100501","digit-span","true","0","","null","<div class = centerbox><div class = center-text>6 Digits</p></div>","null","test_intro","","","","","","","","","","","","","","",""
"poldrack-multi-stim-multi-response","33","151560","0.0-7.0-4.0","100501","digit-span","true","0","","[-1]","","","stim","","[""<div class = centerbox><div class = digit-span-text>7</div></div>"",""<div class = centerbox><div class = digit-span-text>9</div></div>"",""<div class = centerbox><div class = digit-span-text>6</div></div>"",""<div class = centerbox><div class = digit-span-text>4</div></div>"",""<div class = centerbox><div class = digit-span-text>8</div></div>"",""<div class = centerbox><div class = digit-span-text>3</div></div>""]","[-1]","none","[1000,1000,1000,1000,1000,1000]","7200","0","test","7,9,6,4,8,3","6","","","","",""
"single-stim-button","34","155187","0.0-7.0-5.0","100501","digit-span","true","0","","3627","","","response","","","","","","3627","1000","test","7,9,6,4,8,3","6","SubmitButton","3627","7,9,6,4,8,3","forward","true"
"html-keyboard-response","35","156189","0.0-8.0-0.0","100501","digit-span","true","0","","null","<div class = centerbox><div class = center-text>7 Digits</p></div>","null","test_intro","","","","","","","","","","","","","","",""
"poldrack-multi-stim-multi-response","36","165591","0.0-8.0-1.0","100501","digit-span","true","0","","[-1]","","","stim","","[""<div class = centerbox><div class = digit-span-text>5</div></div>"",""<div class = centerbox><div class = digit-span-text>1</div></div>"",""<div class = centerbox><div class = digit-span-text>7</div></div>"",""<div class = centerbox><div class = digit-span-text>4</div></div>"",""<div class = centerbox><div class = digit-span-text>2</div></div>"",""<div class = centerbox><div class = digit-span-text>3</div></div>"",""<div class = centerbox><div class = digit-span-text>8</div></div>""]","[-1]","none","[1000,1000,1000,1000,1000,1000,1000]","8400","0","test","5,1,7,4,2,3,8","7","","","","",""
"single-stim-button","37","169515","0.0-8.0-2.0","100501","digit-span","true","0","","3923","","","response","","","","","","3923","1000","test","5,1,7,4,2,3,8","7","SubmitButton","3923","5,1,7,4,2,3,8","forward","true"
"html-keyboard-response","38","170516","0.0-8.0-3.0","100501","digit-span","true","0","","null","<div class = centerbox><div class = center-text>7 Digits</p></div>","null","test_intro","","","","","","","","","","","","","","",""
"poldrack-multi-stim-multi-response","39","179919","0.0-8.0-4.0","100501","digit-span","true","0","","[-1]","","","stim","","[""<div class = centerbox><div class = digit-span-text>9</div></div>"",""<div class = centerbox><div class = digit-span-text>8</div></div>"",""<div class = centerbox><div class = digit-span-text>5</div></div>"",""<div class = centerbox><div class = digit-span-text>2</div></div>"",""<div class = centerbox><div class = digit-span-text>1</div></div>"",""<div class = centerbox><div class = digit-span-text>6</div></div>"",""<div class = centerbox><div class = digit-span-text>3</div></div>""]","[-1]","none","[1000,1000,1000,1000,1000,1000,1000]","8400","0","test","9,8,5,2,1,6,3","7","","","","",""
"single-stim-button","40","184035","0.0-8.0-5.0","100501","digit-span","true","0","","4115","","","response","","","","","","4115","1000","test","9,8,5,2,1,6,3","7","SubmitButton","4115","9,8,5,2,1,5,6,3","forward","false"
"html-keyboard-response","41","185036","0.0-9.0-0.0","100501","digit-span","true","0","","null","<div class = centerbox><div class = center-text>8 Digits</p></div>","null","test_intro","","","","","","","","","","","","","","",""
"poldrack-multi-stim-multi-response","42","195638","0.0-9.0-1.0","100501","digit-span","true","0","","[-1]","","","stim","","[""<div class = centerbox><div class = digit-span-text>1</div></div>"",""<div class = centerbox><div class = digit-span-text>6</div></div>"",""<div class = centerbox><div class = digit-span-text>4</div></div>"",""<div class = centerbox><div class = digit-span-text>5</div></div>"",""<div class = centerbox><div class = digit-span-text>9</div></div>"",""<div class = centerbox><div class = digit-span-text>7</div></div>"",""<div class = centerbox><div class = digit-span-text>6</div></div>"",""<div class = centerbox><div class = digit-span-text>3</div></div>""]","[-1]","none","[1000,1000,1000,1000,1000,1000,1000,1000]","9600","0","test","1,6,4,5,9,7,6,3","8","","","","",""
"single-stim-button","43","218835","0.0-9.0-2.0","100501","digit-span","true","0","","23196","","","response","","","","","","23196","1000","test","1,6,4,5,9,7,6,3","8","SubmitButton","23196","1,6,9,7,4,5,6,3","forward","false"
"html-keyboard-response","44","219837","0.0-9.0-3.0","100501","digit-span","true","0","","null","<div class = centerbox><div class = center-text>8 Digits</p></div>","null","test_intro","","","","","","","","","","","","","","",""
"poldrack-multi-stim-multi-response","45","230441","0.0-9.0-4.0","100501","digit-span","true","0","","[-1]","","","stim","","[""<div class = centerbox><div class = digit-span-text>2</div></div>"",""<div class = centerbox><div class = digit-span-text>9</div></div>"",""<div class = centerbox><div class = digit-span-text>7</div></div>"",""<div class = centerbox><div class = digit-span-text>6</div></div>"",""<div class = centerbox><div class = digit-span-text>3</div></div>"",""<div class = centerbox><div class = digit-span-text>1</div></div>"",""<div class = centerbox><div class = digit-span-text>5</div></div>"",""<div class = centerbox><div class = digit-span-text>4</div></div>""]","[-1]","none","[1000,1000,1000,1000,1000,1000,1000,1000]","9600","0","test","2,9,7,6,3,1,5,4","8","","","","",""
"single-stim-button","46","238355","0.0-9.0-5.0","100501","digit-span","true","0","","7913","","","response","","","","","","7913","1000","test","2,9,7,6,3,1,5,4","8","SubmitButton","7913","2,9,7,6,3,1,5,4","forward","true"
"html-keyboard-response","47","239357","0.0-10.0-0.0","100501","digit-span","true","0","","null","<div class = centerbox><div class = center-text>9 Digits</p></div>","null","test_intro","","","","","","","","","","","","","","",""
"poldrack-multi-stim-multi-response","48","251159","0.0-10.0-1.0","100501","digit-span","true","0","","[-1]","","","stim","","[""<div class = centerbox><div class = digit-span-text>5</div></div>"",""<div class = centerbox><div class = digit-span-text>3</div></div>"",""<div class = centerbox><div class = digit-span-text>8</div></div>"",""<div class = centerbox><div class = digit-span-text>7</div></div>"",""<div class = centerbox><div class = digit-span-text>1</div></div>"",""<div class = centerbox><div class = digit-span-text>2</div></div>"",""<div class = centerbox><div class = digit-span-text>4</div></div>"",""<div class = centerbox><div class = digit-span-text>6</div></div>"",""<div class = centerbox><div class = digit-span-text>9</div></div>""]","[-1]","none","[1000,1000,1000,1000,1000,1000,1000,1000,1000]","10800","0","test","5,3,8,7,1,2,4,6,9","9","","","","",""
"single-stim-button","49","259588","0.0-10.0-2.0","100501","digit-span","true","0","","8428","","","response","","","","","","8428","1000","test","5,3,8,7,1,2,4,6,9","9","SubmitButton","8428","5,3,8,7,1,2,4,6,9","forward","true"
"html-keyboard-response","50","260590","0.0-10.0-3.0","100501","digit-span","true","0","","null","<div class = centerbox><div class = center-text>9 Digits</p></div>","null","test_intro","","","","","","","","","","","","","","",""
"poldrack-multi-stim-multi-response","51","272392","0.0-10.0-4.0","100501","digit-span","true","0","","[-1]","","","stim","","[""<div class = centerbox><div class = digit-span-text>4</div></div>"",""<div class = centerbox><div class = digit-span-text>2</div></div>"",""<div class = centerbox><div class = digit-span-text>6</div></div>"",""<div class = centerbox><div class = digit-span-text>9</div></div>"",""<div class = centerbox><div class = digit-span-text>1</div></div>"",""<div class = centerbox><div class = digit-span-text>7</div></div>"",""<div class = centerbox><div class = digit-span-text>8</div></div>"",""<div class = centerbox><div class = digit-span-text>3</div></div>"",""<div class = centerbox><div class = digit-span-text>5</div></div>""]","[-1]","none","[1000,1000,1000,1000,1000,1000,1000,1000,1000]","10800","0","test","4,2,6,9,1,7,8,3,5","9","","","","",""
"single-stim-button","52","280236","0.0-10.0-5.0","100501","digit-span","true","0","","7843","","","response","","","","","","7843","1000","test","4,2,6,9,1,7,8,3,5","9","SubmitButton","7843","4,2,6,9,1,7,8,3,5","forward","true"
"html-keyboard-response","53","289804","0.0-11.0","100501","digit-span","true","0","","9566.900000095367","<div class = centerbox><p class = block-text>Now, you will see some numbers, but this time you will enter them <strong>backward</strong>.<br><br>For example, you see <strong>“1—5”</strong>, and you will enter <strong>“5—1”</strong>.<br><br><br>Press <strong>""Enter/Return""</strong> to begin.</p></div>","13","start_reverse","","","","","","","","","","","","","","",""
"html-keyboard-response","54","290806","0.0-12.0-0.0","100501","digit-span","true","0","","null","<div class = centerbox><div class = center-text>2 Digits</p></div>","null","test_intro","","","","","","","","","","","","","","",""
"poldrack-multi-stim-multi-response","55","294209","0.0-12.0-1.0","100501","digit-span","true","0","","[-1]","","","stim","","[""<div class = centerbox><div class = digit-span-text>8</div></div>"",""<div class = centerbox><div class = digit-span-text>2</div></div>""]","[-1]","none","[1000,1000]","2400","0","test","8,2","2","","","","",""
"single-stim-button","56","295868","0.0-12.0-2.0","100501","digit-span","true","0","","1659","","","response","","","","","","1659","1000","test","8,2","2","SubmitButton","1659","2,8","practice","true"
"html-keyboard-response","57","305870","0.0-12.0-3.0","100501","digit-span","true","0","","null","<div class = centerbox><div class = center-block-text><span style=""color:green"">Correct!</span></div></div>","null","feedback","","","","","","","","","","","","","","",""
"html-keyboard-response","58","306871","0.0-12.0-4.0","100501","digit-span","true","0","","null","<div class = centerbox><div class = center-text>2 Digits</p></div>","null","test_intro","","","","","","","","","","","","","","",""
"poldrack-multi-stim-multi-response","59","310273","0.0-12.0-5.0","100501","digit-span","true","0","","[-1]","","","stim","","[""<div class = centerbox><div class = digit-span-text>5</div></div>"",""<div class = centerbox><div class = digit-span-text>6</div></div>""]","[-1]","none","[1000,1000]","2400","0","test","5,6","2","","","","",""
"single-stim-button","60","312380","0.0-12.0-6.0","100501","digit-span","true","0","","2106","","","response","","","","","","2106","1000","test","5,6","2","SubmitButton","2106","6,5","practice","true"
"html-keyboard-response","61","313381","0.0-13.0-0.0","100501","digit-span","true","0","","null","<div class = centerbox><div class = center-text>2 Digits</p></div>","null","test_intro","","","","","","","","","","","","","","",""
"poldrack-multi-stim-multi-response","62","316783","0.0-13.0-1.0","100501","digit-span","true","0","","[-1]","","","stim","","[""<div class = centerbox><div class = digit-span-text>2</div></div>"",""<div class = centerbox><div class = digit-span-text>5</div></div>""]","[-1]","none","[1000,1000]","2400","0","test","2,5","2","","","","",""
"single-stim-button","63","318340","0.0-13.0-2.0","100501","digit-span","true","0","","1556","","","response","","","","","","1556","1000","test","2,5","2","SubmitButton","1556","5,2","reverse","true"
"html-keyboard-response","64","319341","0.0-13.0-3.0","100501","digit-span","true","0","","null","<div class = centerbox><div class = center-text>2 Digits</p></div>","null","test_intro","","","","","","","","","","","","","","",""
"poldrack-multi-stim-multi-response","65","322743","0.0-13.0-4.0","100501","digit-span","true","0","","[-1]","","","stim","","[""<div class = centerbox><div class = digit-span-text>6</div></div>"",""<div class = centerbox><div class = digit-span-text>3</div></div>""]","[-1]","none","[1000,1000]","2400","0","test","6,3","2","","","","",""
"single-stim-button","66","324075","0.0-13.0-5.0","100501","digit-span","true","0","","1331","","","response","","","","","","1331","1000","test","6,3","2","SubmitButton","1331","3,6","reverse","true"
"html-keyboard-response","67","325077","0.0-14.0-0.0","100501","digit-span","true","0","","null","<div class = centerbox><div class = center-text>3 Digits</p></div>","null","test_intro","","","","","","","","","","","","","","",""
"poldrack-multi-stim-multi-response","68","329679","0.0-14.0-1.0","100501","digit-span","true","0","","[-1]","","","stim","","[""<div class = centerbox><div class = digit-span-text>5</div></div>"",""<div class = centerbox><div class = digit-span-text>7</div></div>"",""<div class = centerbox><div class = digit-span-text>4</div></div>""]","[-1]","none","[1000,1000,1000]","3600","0","test","5,7,4","3","","","","",""
"single-stim-button","69","332587","0.0-14.0-2.0","100501","digit-span","true","0","","2908","","","response","","","","","","2908","1000","test","5,7,4","3","SubmitButton","2908","4,7,5","reverse","true"
"html-keyboard-response","70","333589","0.0-14.0-3.0","100501","digit-span","true","0","","null","<div class = centerbox><div class = center-text>3 Digits</p></div>","null","test_intro","","","","","","","","","","","","","","",""
"poldrack-multi-stim-multi-response","71","338192","0.0-14.0-4.0","100501","digit-span","true","0","","[-1]","","","stim","","[""<div class = centerbox><div class = digit-span-text>2</div></div>"",""<div class = centerbox><div class = digit-span-text>5</div></div>"",""<div class = centerbox><div class = digit-span-text>9</div></div>""]","[-1]","none","[1000,1000,1000]","3600","0","test","2,5,9","3","","","","",""
"single-stim-button","72","340539","0.0-14.0-5.0","100501","digit-span","true","0","","2347","","","response","","","","","","2347","1000","test","2,5,9","3","SubmitButton","2347","9,5,2","reverse","true"
"html-keyboard-response","73","341541","0.0-15.0-0.0","100501","digit-span","true","0","","null","<div class = centerbox><div class = center-text>4 Digits</p></div>","null","test_intro","","","","","","","","","","","","","","",""
"poldrack-multi-stim-multi-response","74","347345","0.0-15.0-1.0","100501","digit-span","true","0","","[-1]","","","stim","","[""<div class = centerbox><div class = digit-span-text>7</div></div>"",""<div class = centerbox><div class = digit-span-text>2</div></div>"",""<div class = centerbox><div class = digit-span-text>9</div></div>"",""<div class = centerbox><div class = digit-span-text>6</div></div>""]","[-1]","none","[1000,1000,1000,1000]","4800","0","test","7,2,9,6","4","","","","",""
"single-stim-button","75","350131","0.0-15.0-2.0","100501","digit-span","true","0","","2786","","","response","","","","","","2786","1000","test","7,2,9,6","4","SubmitButton","2786","6,9,2,7","reverse","true"
"html-keyboard-response","76","351133","0.0-15.0-3.0","100501","digit-span","true","0","","null","<div class = centerbox><div class = center-text>4 Digits</p></div>","null","test_intro","","","","","","","","","","","","","","",""
"poldrack-multi-stim-multi-response","77","356937","0.0-15.0-4.0","100501","digit-span","true","0","","[-1]","","","stim","","[""<div class = centerbox><div class = digit-span-text>8</div></div>"",""<div class = centerbox><div class = digit-span-text>4</div></div>"",""<div class = centerbox><div class = digit-span-text>9</div></div>"",""<div class = centerbox><div class = digit-span-text>3</div></div>""]","[-1]","none","[1000,1000,1000,1000]","4800","0","test","8,4,9,3","4","","","","",""
"single-stim-button","78","362036","0.0-15.0-5.0","100501","digit-span","true","0","","5099","","","response","","","","","","5099","1000","test","8,4,9,3","4","SubmitButton","5099","3,9,4,8","reverse","true"
"html-keyboard-response","79","363039","0.0-16.0-0.0","100501","digit-span","true","0","","null","<div class = centerbox><div class = center-text>5 Digits</p></div>","null","test_intro","","","","","","","","","","","","","","",""
"poldrack-multi-stim-multi-response","80","370043","0.0-16.0-1.0","100501","digit-span","true","0","","[-1]","","","stim","","[""<div class = centerbox><div class = digit-span-text>4</div></div>"",""<div class = centerbox><div class = digit-span-text>1</div></div>"",""<div class = centerbox><div class = digit-span-text>3</div></div>"",""<div class = centerbox><div class = digit-span-text>5</div></div>"",""<div class = centerbox><div class = digit-span-text>7</div></div>""]","[-1]","none","[1000,1000,1000,1000,1000]","6000","0","test","4,1,3,5,7","5","","","","",""
"single-stim-button","81","375780","0.0-16.0-2.0","100501","digit-span","true","0","","5737","","","response","","","","","","5737","1000","test","4,1,3,5,7","5","SubmitButton","5737","7,5,3,1,4","reverse","true"
"html-keyboard-response","82","376782","0.0-16.0-3.0","100501","digit-span","true","0","","null","<div class = centerbox><div class = center-text>5 Digits</p></div>","null","test_intro","","","","","","","","","","","","","","",""
"poldrack-multi-stim-multi-response","83","383785","0.0-16.0-4.0","100501","digit-span","true","0","","[-1]","","","stim","","[""<div class = centerbox><div class = digit-span-text>9</div></div>"",""<div class = centerbox><div class = digit-span-text>7</div></div>"",""<div class = centerbox><div class = digit-span-text>8</div></div>"",""<div class = centerbox><div class = digit-span-text>5</div></div>"",""<div class = centerbox><div class = digit-span-text>2</div></div>""]","[-1]","none","[1000,1000,1000,1000,1000]","6000","0","test","9,7,8,5,2","5","","","","",""
"single-stim-button","84","388596","0.0-16.0-5.0","100501","digit-span","true","0","","4811","","","response","","","","","","4811","1000","test","9,7,8,5,2","5","SubmitButton","4811","2,5,8,7,9","reverse","true"
"html-keyboard-response","85","389598","0.0-17.0-0.0","100501","digit-span","true","0","","null","<div class = centerbox><div class = center-text>6 Digits</p></div>","null","test_intro","","","","","","","","","","","","","","",""
"poldrack-multi-stim-multi-response","86","397801","0.0-17.0-1.0","100501","digit-span","true","0","","[-1]","","","stim","","[""<div class = centerbox><div class = digit-span-text>1</div></div>"",""<div class = centerbox><div class = digit-span-text>6</div></div>"",""<div class = centerbox><div class = digit-span-text>5</div></div>"",""<div class = centerbox><div class = digit-span-text>2</div></div>"",""<div class = centerbox><div class = digit-span-text>9</div></div>"",""<div class = centerbox><div class = digit-span-text>8</div></div>""]","[-1]","none","[1000,1000,1000,1000,1000,1000]","7200","0","test","1,6,5,2,9,8","6","","","","",""
"single-stim-button","87","402300","0.0-17.0-2.0","100501","digit-span","true","0","","4499","","","response","","","","","","4499","1000","test","1,6,5,2,9,8","6","SubmitButton","4499","8,9,2,5,6,1","reverse","true"
"html-keyboard-response","88","403302","0.0-17.0-3.0","100501","digit-span","true","0","","null","<div class = centerbox><div class = center-text>6 Digits</p></div>","null","test_intro","","","","","","","","","","","","","","",""
"poldrack-multi-stim-multi-response","89","411505","0.0-17.0-4.0","100501","digit-span","true","0","","[-1]","","","stim","","[""<div class = centerbox><div class = digit-span-text>3</div></div>"",""<div class = centerbox><div class = digit-span-text>6</div></div>"",""<div class = centerbox><div class = digit-span-text>7</div></div>"",""<div class = centerbox><div class = digit-span-text>1</div></div>"",""<div class = centerbox><div class = digit-span-text>9</div></div>"",""<div class = centerbox><div class = digit-span-text>4</div></div>""]","[-1]","none","[1000,1000,1000,1000,1000,1000]","7200","0","test","3,6,7,1,9,4","6","","","","",""
"single-stim-button","90","419916","0.0-17.0-5.0","100501","digit-span","true","0","","8411","","","response","","","","","","8411","1000","test","3,6,7,1,9,4","6","SubmitButton","8411","4,9,1,7,3,6","reverse","false"
"html-keyboard-response","91","420919","0.0-18.0-0.0","100501","digit-span","true","0","","null","<div class = centerbox><div class = center-text>7 Digits</p></div>","null","test_intro","","","","","","","","","","","","","","",""
"poldrack-multi-stim-multi-response","92","430323","0.0-18.0-1.0","100501","digit-span","true","0","","[-1]","","","stim","","[""<div class = centerbox><div class = digit-span-text>8</div></div>"",""<div class = centerbox><div class = digit-span-text>5</div></div>"",""<div class = centerbox><div class = digit-span-text>9</div></div>"",""<div class = centerbox><div class = digit-span-text>2</div></div>"",""<div class = centerbox><div class = digit-span-text>3</div></div>"",""<div class = centerbox><div class = digit-span-text>4</div></div>"",""<div class = centerbox><div class = digit-span-text>2</div></div>""]","[-1]","none","[1000,1000,1000,1000,1000,1000,1000]","8400","0","test","8,5,9,2,3,4,2","7","","","","",""
"single-stim-button","93","444372","0.0-18.0-2.0","100501","digit-span","true","0","","14048","","","response","","","","","","14048","1000","test","8,5,9,2,3,4,2","7","SubmitButton","14048","2,4,3,2,9,5,8","reverse","true"
"html-keyboard-response","94","445375","0.0-18.0-3.0","100501","digit-span","true","0","","null","<div class = centerbox><div class = center-text>7 Digits</p></div>","null","test_intro","","","","","","","","","","","","","","",""
"poldrack-multi-stim-multi-response","95","454777","0.0-18.0-4.0","100501","digit-span","true","0","","[-1]","","","stim","","[""<div class = centerbox><div class = digit-span-text>4</div></div>"",""<div class = centerbox><div class = digit-span-text>5</div></div>"",""<div class = centerbox><div class = digit-span-text>7</div></div>"",""<div class = centerbox><div class = digit-span-text>9</div></div>"",""<div class = centerbox><div class = digit-span-text>2</div></div>"",""<div class = centerbox><div class = digit-span-text>8</div></div>"",""<div class = centerbox><div class = digit-span-text>1</div></div>""]","[-1]","none","[1000,1000,1000,1000,1000,1000,1000]","8400","0","test","4,5,7,9,2,8,1","7","","","","",""
"single-stim-button","96","481797","0.0-18.0-5.0","100501","digit-span","true","0","","27019","","","response","","","","","","27019","1000","test","4,5,7,9,2,8,1","7","SubmitButton","27019","1,8,2,9,7,5,4","reverse","true"
"html-keyboard-response","97","482799","0.0-19.0-0.0","100501","digit-span","true","0","","null","<div class = centerbox><div class = center-text>8 Digits</p></div>","null","test_intro","","","","","","","","","","","","","","",""
"poldrack-multi-stim-multi-response","98","493401","0.0-19.0-1.0","100501","digit-span","true","0","","[-1]","","","stim","","[""<div class = centerbox><div class = digit-span-text>6</div></div>"",""<div class = centerbox><div class = digit-span-text>9</div></div>"",""<div class = centerbox><div class = digit-span-text>1</div></div>"",""<div class = centerbox><div class = digit-span-text>6</div></div>"",""<div class = centerbox><div class = digit-span-text>3</div></div>"",""<div class = centerbox><div class = digit-span-text>2</div></div>"",""<div class = centerbox><div class = digit-span-text>5</div></div>"",""<div class = centerbox><div class = digit-span-text>8</div></div>""]","[-1]","none","[1000,1000,1000,1000,1000,1000,1000,1000]","9600","0","test","6,9,1,6,3,2,5,8","8","","","","",""
"single-stim-button","99","503997","0.0-19.0-2.0","100501","digit-span","true","0","","10595","","","response","","","","","","10595","1000","test","6,9,1,6,3,2,5,8","8","SubmitButton","10595","8,5,2,3,9,1,9,6","reverse","false"
"html-keyboard-response","100","504998","0.0-19.0-3.0","100501","digit-span","true","0","","null","<div class = centerbox><div class = center-text>8 Digits</p></div>","null","test_intro","","","","","","","","","","","","","","",""
"poldrack-multi-stim-multi-response","101","515602","0.0-19.0-4.0","100501","digit-span","true","0","","[-1]","","","stim","","[""<div class = centerbox><div class = digit-span-text>3</div></div>"",""<div class = centerbox><div class = digit-span-text>1</div></div>"",""<div class = centerbox><div class = digit-span-text>7</div></div>"",""<div class = centerbox><div class = digit-span-text>9</div></div>"",""<div class = centerbox><div class = digit-span-text>5</div></div>"",""<div class = centerbox><div class = digit-span-text>4</div></div>"",""<div class = centerbox><div class = digit-span-text>8</div></div>"",""<div class = centerbox><div class = digit-span-text>2</div></div>""]","[-1]","none","[1000,1000,1000,1000,1000,1000,1000,1000]","9600","0","test","3,1,7,9,5,4,8,2","8","","","","",""
"single-stim-button","102","528093","0.0-19.0-5.0","100501","digit-span","true","0","","12491","","","response","","","","","","12491","1000","test","3,1,7,9,5,4,8,2","8","SubmitButton","12491","2,8,4,5,9,7,1,3","reverse","true"
"image-keyboard-response","103","529709","0.0-20.0","100501","digit-span","true","0","","1614.7999999523163","img/trophy2.jpeg","13","end","","","","","","","","","","","","","","",""
