"trial_type","trial_index","time_elapsed","internal_node_id","subject","order","exp_id","full_screen","focus_shifts","success","rt","stimulus","key_press","trial_id","view_history","stimuli","key_presses","possible_responses","stim_durations","block_duration","timing_post_trial","exp_stage","sequence","num_digits","mouse_click","stim_duration","response","condition","correct"
"pavlovia","0","2742","0.0-0.0","1285","1","digit-span","true","0","","","","","","","","","","","","","","","","","","","",""
"fullscreen","1","6997","0.0-1.0","1285","1","digit-span","true","0","true","","","","","","","","","","","","","","","","","","",""
"html-keyboard-response","2","12773","0.0-2.0-0.0","1285","1","digit-span","true","0","","5774.399999999907","<div class = centerbox><p class = center-block-text>Welcome to the number game! It will take less than 5 minutes. Press <strong>""Enter/Return""</strong> to begin.</p></div>","13","instruction","","","","","","","","","","","","","","",""
"instructions","3","19956","0.0-2.0-1.0","1285","1","digit-span","true","0","","7183.299999999814","","","instruction","[{""page_index"":0,""viewing_time"":7183.100000000093}]","","","","","","","","","","","","","",""
"instructions","4","26853","0.0-2.0-2.0","1285","1","digit-span","true","0","","5894.100000000093","","","instruction","[{""page_index"":0,""viewing_time"":5893.899999999907}]","","","","","","","","","","","","","",""
"html-keyboard-response","5","28868","0.0-3.0-0.0","1285","1","digit-span","true","0","","null","<div class = centerbox><div class = center-text>2 Digits</p></div>","null","test_intro","","","","","","","","","","","","","","",""
"poldrack-multi-stim-multi-response","6","32286","0.0-3.0-1.0","1285","1","digit-span","true","0","","[-1]","","","stim","","[""<div class = centerbox><div class = digit-span-text>2</div></div>"",""<div class = centerbox><div class = digit-span-text>9</div></div>""]","[-1]","none","[1000,1000]","2400","0","test","2,9","2","","","","",""
"single-stim-button","7","36702","0.0-3.0-2.0","1285","1","digit-span","true","0","","4414","","","response","","","","","","4414","1000","test","2,9","2","SubmitButton","4414","2,9","forward","true"
"html-keyboard-response","8","37704","0.0-3.0-3.0","1285","1","digit-span","true","0","","null","<div class = centerbox><div class = center-text>2 Digits</p></div>","null","test_intro","","","","","","","","","","","","","","",""
"poldrack-multi-stim-multi-response","9","41107","0.0-3.0-4.0","1285","1","digit-span","true","0","","[-1]","","","stim","","[""<div class = centerbox><div class = digit-span-text>4</div></div>"",""<div class = centerbox><div class = digit-span-text>6</div></div>""]","[-1]","none","[1000,1000]","2400","0","test","4,6","2","","","","",""
"single-stim-button","10","43021","0.0-3.0-5.0","1285","1","digit-span","true","0","","1912","","","response","","","","","","1912","1000","test","4,6","2","SubmitButton","1912","4,6","forward","true"
"html-keyboard-response","11","44022","0.0-4.0-0.0","1285","1","digit-span","true","0","","null","<div class = centerbox><div class = center-text>3 Digits</p></div>","null","test_intro","","","","","","","","","","","","","","",""
"poldrack-multi-stim-multi-response","12","48625","0.0-4.0-1.0","1285","1","digit-span","true","0","","[-1]","","","stim","","[""<div class = centerbox><div class = digit-span-text>3</div></div>"",""<div class = centerbox><div class = digit-span-text>8</div></div>"",""<div class = centerbox><div class = digit-span-text>6</div></div>""]","[-1]","none","[1000,1000,1000]","3600","0","test","3,8,6","3","","","","",""
"single-stim-button","13","50693","0.0-4.0-2.0","1285","1","digit-span","true","0","","2066","","","response","","","","","","2066","1000","test","3,8,6","3","SubmitButton","2066","3,8,6","forward","true"
"html-keyboard-response","14","51694","0.0-4.0-3.0","1285","1","digit-span","true","0","","null","<div class = centerbox><div class = center-text>3 Digits</p></div>","null","test_intro","","","","","","","","","","","","","","",""
"poldrack-multi-stim-multi-response","15","56298","0.0-4.0-4.0","1285","1","digit-span","true","0","","[-1]","","","stim","","[""<div class = centerbox><div class = digit-span-text>6</div></div>"",""<div class = centerbox><div class = digit-span-text>1</div></div>"",""<div class = centerbox><div class = digit-span-text>2</div></div>""]","[-1]","none","[1000,1000,1000]","3600","0","test","6,1,2","3","","","","",""
"single-stim-button","16","58981","0.0-4.0-5.0","1285","1","digit-span","true","0","","2681","","","response","","","","","","2681","1000","test","6,1,2","3","SubmitButton","2681","6,1,2","forward","true"
"html-keyboard-response","17","59982","0.0-5.0-0.0","1285","1","digit-span","true","0","","null","<div class = centerbox><div class = center-text>4 Digits</p></div>","null","test_intro","","","","","","","","","","","","","","",""
"poldrack-multi-stim-multi-response","18","65784","0.0-5.0-1.0","1285","1","digit-span","true","0","","[-1]","","","stim","","[""<div class = centerbox><div class = digit-span-text>3</div></div>"",""<div class = centerbox><div class = digit-span-text>4</div></div>"",""<div class = centerbox><div class = digit-span-text>1</div></div>"",""<div class = centerbox><div class = digit-span-text>7</div></div>""]","[-1]","none","[1000,1000,1000,1000]","4800","0","test","3,4,1,7","4","","","","",""
"single-stim-button","19","68365","0.0-5.0-2.0","1285","1","digit-span","true","0","","2579","","","response","","","","","","2579","1000","test","3,4,1,7","4","SubmitButton","2579","3,4,1,7","forward","true"
"html-keyboard-response","20","69366","0.0-5.0-3.0","1285","1","digit-span","true","0","","null","<div class = centerbox><div class = center-text>4 Digits</p></div>","null","test_intro","","","","","","","","","","","","","","",""
"poldrack-multi-stim-multi-response","21","75171","0.0-5.0-4.0","1285","1","digit-span","true","0","","[-1]","","","stim","","[""<div class = centerbox><div class = digit-span-text>6</div></div>"",""<div class = centerbox><div class = digit-span-text>1</div></div>"",""<div class = centerbox><div class = digit-span-text>5</div></div>"",""<div class = centerbox><div class = digit-span-text>8</div></div>""]","[-1]","none","[1000,1000,1000,1000]","4800","0","test","6,1,5,8","4","","","","",""
"single-stim-button","22","77748","0.0-5.0-5.0","1285","1","digit-span","true","0","","2577","","","response","","","","","","2577","1000","test","6,1,5,8","4","SubmitButton","2577","6,1,5,8","forward","true"
"html-keyboard-response","23","78750","0.0-6.0-0.0","1285","1","digit-span","true","0","","null","<div class = centerbox><div class = center-text>5 Digits</p></div>","null","test_intro","","","","","","","","","","","","","","",""
"poldrack-multi-stim-multi-response","24","85753","0.0-6.0-1.0","1285","1","digit-span","true","0","","[-1]","","","stim","","[""<div class = centerbox><div class = digit-span-text>8</div></div>"",""<div class = centerbox><div class = digit-span-text>4</div></div>"",""<div class = centerbox><div class = digit-span-text>2</div></div>"",""<div class = centerbox><div class = digit-span-text>3</div></div>"",""<div class = centerbox><div class = digit-span-text>9</div></div>""]","[-1]","none","[1000,1000,1000,1000,1000]","6000","0","test","8,4,2,3,9","5","","","","",""
"single-stim-button","25","89044","0.0-6.0-2.0","1285","1","digit-span","true","0","","3290","","","response","","","","","","3290","1000","test","8,4,2,3,9","5","SubmitButton","3290","8,4,2,3,9","forward","true"
"html-keyboard-response","26","90045","0.0-6.0-3.0","1285","1","digit-span","true","0","","null","<div class = centerbox><div class = center-text>5 Digits</p></div>","null","test_intro","","","","","","","","","","","","","","",""
"poldrack-multi-stim-multi-response","27","97050","0.0-6.0-4.0","1285","1","digit-span","true","0","","[-1]","","","stim","","[""<div class = centerbox><div class = digit-span-text>5</div></div>"",""<div class = centerbox><div class = digit-span-text>2</div></div>"",""<div class = centerbox><div class = digit-span-text>1</div></div>"",""<div class = centerbox><div class = digit-span-text>8</div></div>"",""<div class = centerbox><div class = digit-span-text>6</div></div>""]","[-1]","none","[1000,1000,1000,1000,1000]","6000","0","test","5,2,1,8,6","5","","","","",""
"single-stim-button","28","100484","0.0-6.0-5.0","1285","1","digit-span","true","0","","3433","","","response","","","","","","3433","1000","test","5,2,1,8,6","5","SubmitButton","3433","5,2,1,8,6","forward","true"
"html-keyboard-response","29","101485","0.0-7.0-0.0","1285","1","digit-span","true","0","","null","<div class = centerbox><div class = center-text>6 Digits</p></div>","null","test_intro","","","","","","","","","","","","","","",""
"poldrack-multi-stim-multi-response","30","109689","0.0-7.0-1.0","1285","1","digit-span","true","0","","[-1]","","","stim","","[""<div class = centerbox><div class = digit-span-text>3</div></div>"",""<div class = centerbox><div class = digit-span-text>8</div></div>"",""<div class = centerbox><div class = digit-span-text>9</div></div>"",""<div class = centerbox><div class = digit-span-text>1</div></div>"",""<div class = centerbox><div class = digit-span-text>7</div></div>"",""<div class = centerbox><div class = digit-span-text>4</div></div>""]","[-1]","none","[1000,1000,1000,1000,1000,1000]","7200","0","test","3,8,9,1,7,4","6","","","","",""
"single-stim-button","31","113700","0.0-7.0-2.0","1285","1","digit-span","true","0","","4010","","","response","","","","","","4010","1000","test","3,8,9,1,7,4","6","SubmitButton","4010","3,8,9,1,7,4","forward","true"
"html-keyboard-response","32","114702","0.0-7.0-3.0","1285","1","digit-span","true","0","","null","<div class = centerbox><div class = center-text>6 Digits</p></div>","null","test_intro","","","","","","","","","","","","","","",""
"poldrack-multi-stim-multi-response","33","122905","0.0-7.0-4.0","1285","1","digit-span","true","0","","[-1]","","","stim","","[""<div class = centerbox><div class = digit-span-text>7</div></div>"",""<div class = centerbox><div class = digit-span-text>9</div></div>"",""<div class = centerbox><div class = digit-span-text>6</div></div>"",""<div class = centerbox><div class = digit-span-text>4</div></div>"",""<div class = centerbox><div class = digit-span-text>8</div></div>"",""<div class = centerbox><div class = digit-span-text>3</div></div>""]","[-1]","none","[1000,1000,1000,1000,1000,1000]","7200","0","test","7,9,6,4,8,3","6","","","","",""
"single-stim-button","34","126844","0.0-7.0-5.0","1285","1","digit-span","true","0","","3937","","","response","","","","","","3937","1000","test","7,9,6,4,8,3","6","SubmitButton","3937","7,9,6,4,8,3","forward","true"
"html-keyboard-response","35","127845","0.0-8.0-0.0","1285","1","digit-span","true","0","","null","<div class = centerbox><div class = center-text>7 Digits</p></div>","null","test_intro","","","","","","","","","","","","","","",""
"poldrack-multi-stim-multi-response","36","137248","0.0-8.0-1.0","1285","1","digit-span","true","0","","[-1]","","","stim","","[""<div class = centerbox><div class = digit-span-text>5</div></div>"",""<div class = centerbox><div class = digit-span-text>1</div></div>"",""<div class = centerbox><div class = digit-span-text>7</div></div>"",""<div class = centerbox><div class = digit-span-text>4</div></div>"",""<div class = centerbox><div class = digit-span-text>2</div></div>"",""<div class = centerbox><div class = digit-span-text>3</div></div>"",""<div class = centerbox><div class = digit-span-text>8</div></div>""]","[-1]","none","[1000,1000,1000,1000,1000,1000,1000]","8400","0","test","5,1,7,4,2,3,8","7","","","","",""
"single-stim-button","37","141612","0.0-8.0-2.0","1285","1","digit-span","true","0","","4362","","","response","","","","","","4362","1000","test","5,1,7,4,2,3,8","7","SubmitButton","4362","5,1,7,4,3,2,8","forward","false"
"html-keyboard-response","38","142614","0.0-8.0-3.0","1285","1","digit-span","true","0","","null","<div class = centerbox><div class = center-text>7 Digits</p></div>","null","test_intro","","","","","","","","","","","","","","",""
"poldrack-multi-stim-multi-response","39","152017","0.0-8.0-4.0","1285","1","digit-span","true","0","","[-1]","","","stim","","[""<div class = centerbox><div class = digit-span-text>9</div></div>"",""<div class = centerbox><div class = digit-span-text>8</div></div>"",""<div class = centerbox><div class = digit-span-text>5</div></div>"",""<div class = centerbox><div class = digit-span-text>2</div></div>"",""<div class = centerbox><div class = digit-span-text>1</div></div>"",""<div class = centerbox><div class = digit-span-text>6</div></div>"",""<div class = centerbox><div class = digit-span-text>3</div></div>""]","[-1]","none","[1000,1000,1000,1000,1000,1000,1000]","8400","0","test","9,8,5,2,1,6,3","7","","","","",""
"single-stim-button","40","156836","0.0-8.0-5.0","1285","1","digit-span","true","0","","4817","","","response","","","","","","4817","1000","test","9,8,5,2,1,6,3","7","SubmitButton","4817","9,8,5,2,1,6,3","forward","true"
"html-keyboard-response","41","157838","0.0-9.0-0.0","1285","1","digit-span","true","0","","null","<div class = centerbox><div class = center-text>8 Digits</p></div>","null","test_intro","","","","","","","","","","","","","","",""
"poldrack-multi-stim-multi-response","42","168441","0.0-9.0-1.0","1285","1","digit-span","true","0","","[-1]","","","stim","","[""<div class = centerbox><div class = digit-span-text>1</div></div>"",""<div class = centerbox><div class = digit-span-text>6</div></div>"",""<div class = centerbox><div class = digit-span-text>4</div></div>"",""<div class = centerbox><div class = digit-span-text>5</div></div>"",""<div class = centerbox><div class = digit-span-text>9</div></div>"",""<div class = centerbox><div class = digit-span-text>7</div></div>"",""<div class = centerbox><div class = digit-span-text>6</div></div>"",""<div class = centerbox><div class = digit-span-text>3</div></div>""]","[-1]","none","[1000,1000,1000,1000,1000,1000,1000,1000]","9600","0","test","1,6,4,5,9,7,6,3","8","","","","",""
"single-stim-button","43","172572","0.0-9.0-2.0","1285","1","digit-span","true","0","","4129","","","response","","","","","","4129","1000","test","1,6,4,5,9,7,6,3","8","SubmitButton","4129","1,6,4,5,9,7,6,3","forward","true"
"html-keyboard-response","44","173574","0.0-9.0-3.0","1285","1","digit-span","true","0","","null","<div class = centerbox><div class = center-text>8 Digits</p></div>","null","test_intro","","","","","","","","","","","","","","",""
"poldrack-multi-stim-multi-response","45","184177","0.0-9.0-4.0","1285","1","digit-span","true","0","","[-1]","","","stim","","[""<div class = centerbox><div class = digit-span-text>2</div></div>"",""<div class = centerbox><div class = digit-span-text>9</div></div>"",""<div class = centerbox><div class = digit-span-text>7</div></div>"",""<div class = centerbox><div class = digit-span-text>6</div></div>"",""<div class = centerbox><div class = digit-span-text>3</div></div>"",""<div class = centerbox><div class = digit-span-text>1</div></div>"",""<div class = centerbox><div class = digit-span-text>5</div></div>"",""<div class = centerbox><div class = digit-span-text>4</div></div>""]","[-1]","none","[1000,1000,1000,1000,1000,1000,1000,1000]","9600","0","test","2,9,7,6,3,1,5,4","8","","","","",""
"single-stim-button","46","189091","0.0-9.0-5.0","1285","1","digit-span","true","0","","4913","","","response","","","","","","4913","1000","test","2,9,7,6,3,1,5,4","8","SubmitButton","4913","2,9,7,6,3,1,5,4","forward","true"
"html-keyboard-response","47","190093","0.0-10.0-0.0","1285","1","digit-span","true","0","","null","<div class = centerbox><div class = center-text>9 Digits</p></div>","null","test_intro","","","","","","","","","","","","","","",""
"poldrack-multi-stim-multi-response","48","201897","0.0-10.0-1.0","1285","1","digit-span","true","0","","[-1]","","","stim","","[""<div class = centerbox><div class = digit-span-text>5</div></div>"",""<div class = centerbox><div class = digit-span-text>3</div></div>"",""<div class = centerbox><div class = digit-span-text>8</div></div>"",""<div class = centerbox><div class = digit-span-text>7</div></div>"",""<div class = centerbox><div class = digit-span-text>1</div></div>"",""<div class = centerbox><div class = digit-span-text>2</div></div>"",""<div class = centerbox><div class = digit-span-text>4</div></div>"",""<div class = centerbox><div class = digit-span-text>6</div></div>"",""<div class = centerbox><div class = digit-span-text>9</div></div>""]","[-1]","none","[1000,1000,1000,1000,1000,1000,1000,1000,1000]","10800","0","test","5,3,8,7,1,2,4,6,9","9","","","","",""
"single-stim-button","49","206604","0.0-10.0-2.0","1285","1","digit-span","true","0","","4706","","","response","","","","","","4706","1000","test","5,3,8,7,1,2,4,6,9","9","SubmitButton","4706","5,3,8,7,1,4,2,8,9","forward","false"
"html-keyboard-response","50","207604","0.0-10.0-3.0","1285","1","digit-span","true","0","","null","<div class = centerbox><div class = center-text>9 Digits</p></div>","null","test_intro","","","","","","","","","","","","","","",""
"poldrack-multi-stim-multi-response","51","219408","0.0-10.0-4.0","1285","1","digit-span","true","0","","[-1]","","","stim","","[""<div class = centerbox><div class = digit-span-text>4</div></div>"",""<div class = centerbox><div class = digit-span-text>2</div></div>"",""<div class = centerbox><div class = digit-span-text>6</div></div>"",""<div class = centerbox><div class = digit-span-text>9</div></div>"",""<div class = centerbox><div class = digit-span-text>1</div></div>"",""<div class = centerbox><div class = digit-span-text>7</div></div>"",""<div class = centerbox><div class = digit-span-text>8</div></div>"",""<div class = centerbox><div class = digit-span-text>3</div></div>"",""<div class = centerbox><div class = digit-span-text>5</div></div>""]","[-1]","none","[1000,1000,1000,1000,1000,1000,1000,1000,1000]","10800","0","test","4,2,6,9,1,7,8,3,5","9","","","","",""
"single-stim-button","52","224210","0.0-10.0-5.0","1285","1","digit-span","true","0","","4800","","","response","","","","","","4800","1000","test","4,2,6,9,1,7,8,3,5","9","SubmitButton","4800","4,2,6,9,1,7,8,3,5","forward","true"
"html-keyboard-response","53","251522","0.0-11.0","1285","1","digit-span","true","0","","27311.5","<div class = centerbox><p class = block-text>Now, you will see some numbers, but this time you will enter them <strong>backward</strong>.<br><br>For example, you see <strong>“1—5”</strong>, and you will enter <strong>“5—1”</strong>.<br><br><br>Press <strong>""Enter/Return""</strong> to begin.</p></div>","13","start_reverse","","","","","","","","","","","","","","",""
"html-keyboard-response","54","252523","0.0-12.0-0.0","1285","1","digit-span","true","0","","null","<div class = centerbox><div class = center-text>2 Digits</p></div>","null","test_intro","","","","","","","","","","","","","","",""
"poldrack-multi-stim-multi-response","55","255925","0.0-12.0-1.0","1285","1","digit-span","true","0","","[-1]","","","stim","","[""<div class = centerbox><div class = digit-span-text>8</div></div>"",""<div class = centerbox><div class = digit-span-text>2</div></div>""]","[-1]","none","[1000,1000]","2400","0","test","8,2","2","","","","",""
"single-stim-button","56","257314","0.0-12.0-2.0","1285","1","digit-span","true","0","","1389","","","response","","","","","","1389","1000","test","8,2","2","SubmitButton","1389","2,8","practice","true"
"html-keyboard-response","57","267313","0.0-12.0-3.0","1285","1","digit-span","true","0","","null","<div class = centerbox><div class = center-block-text><span style=""color:green"">Correct!</span></div></div>","null","feedback","","","","","","","","","","","","","","",""
"html-keyboard-response","58","268315","0.0-12.0-4.0","1285","1","digit-span","true","0","","null","<div class = centerbox><div class = center-text>2 Digits</p></div>","null","test_intro","","","","","","","","","","","","","","",""
"poldrack-multi-stim-multi-response","59","271719","0.0-12.0-5.0","1285","1","digit-span","true","0","","[-1]","","","stim","","[""<div class = centerbox><div class = digit-span-text>5</div></div>"",""<div class = centerbox><div class = digit-span-text>6</div></div>""]","[-1]","none","[1000,1000]","2400","0","test","5,6","2","","","","",""
"single-stim-button","60","273248","0.0-12.0-6.0","1285","1","digit-span","true","0","","1527","","","response","","","","","","1527","1000","test","5,6","2","SubmitButton","1527","6,5","practice","true"
"html-keyboard-response","61","274249","0.0-13.0-0.0","1285","1","digit-span","true","0","","null","<div class = centerbox><div class = center-text>2 Digits</p></div>","null","test_intro","","","","","","","","","","","","","","",""
"poldrack-multi-stim-multi-response","62","277653","0.0-13.0-1.0","1285","1","digit-span","true","0","","[-1]","","","stim","","[""<div class = centerbox><div class = digit-span-text>2</div></div>"",""<div class = centerbox><div class = digit-span-text>5</div></div>""]","[-1]","none","[1000,1000]","2400","0","test","2,5","2","","","","",""
"single-stim-button","63","279048","0.0-13.0-2.0","1285","1","digit-span","true","0","","1393","","","response","","","","","","1393","1000","test","2,5","2","SubmitButton","1393","5,2","reverse","true"
"html-keyboard-response","64","280049","0.0-13.0-3.0","1285","1","digit-span","true","0","","null","<div class = centerbox><div class = center-text>2 Digits</p></div>","null","test_intro","","","","","","","","","","","","","","",""
"poldrack-multi-stim-multi-response","65","283453","0.0-13.0-4.0","1285","1","digit-span","true","0","","[-1]","","","stim","","[""<div class = centerbox><div class = digit-span-text>6</div></div>"",""<div class = centerbox><div class = digit-span-text>3</div></div>""]","[-1]","none","[1000,1000]","2400","0","test","6,3","2","","","","",""
"single-stim-button","66","284944","0.0-13.0-5.0","1285","1","digit-span","true","0","","1490","","","response","","","","","","1490","1000","test","6,3","2","SubmitButton","1490","3,6","reverse","true"
"html-keyboard-response","67","285945","0.0-14.0-0.0","1285","1","digit-span","true","0","","null","<div class = centerbox><div class = center-text>3 Digits</p></div>","null","test_intro","","","","","","","","","","","","","","",""
"poldrack-multi-stim-multi-response","68","290548","0.0-14.0-1.0","1285","1","digit-span","true","0","","[-1]","","","stim","","[""<div class = centerbox><div class = digit-span-text>5</div></div>"",""<div class = centerbox><div class = digit-span-text>7</div></div>"",""<div class = centerbox><div class = digit-span-text>4</div></div>""]","[-1]","none","[1000,1000,1000]","3600","0","test","5,7,4","3","","","","",""
"single-stim-button","69","292767","0.0-14.0-2.0","1285","1","digit-span","true","0","","2218","","","response","","","","","","2218","1000","test","5,7,4","3","SubmitButton","2218","4,7,5","reverse","true"
"html-keyboard-response","70","293768","0.0-14.0-3.0","1285","1","digit-span","true","0","","null","<div class = centerbox><div class = center-text>3 Digits</p></div>","null","test_intro","","","","","","","","","","","","","","",""
"poldrack-multi-stim-multi-response","71","298372","0.0-14.0-4.0","1285","1","digit-span","true","0","","[-1]","","","stim","","[""<div class = centerbox><div class = digit-span-text>2</div></div>"",""<div class = centerbox><div class = digit-span-text>5</div></div>"",""<div class = centerbox><div class = digit-span-text>9</div></div>""]","[-1]","none","[1000,1000,1000]","3600","0","test","2,5,9","3","","","","",""
"single-stim-button","72","300375","0.0-14.0-5.0","1285","1","digit-span","true","0","","2002","","","response","","","","","","2002","1000","test","2,5,9","3","SubmitButton","2002","9,5,2","reverse","true"
"html-keyboard-response","73","301377","0.0-15.0-0.0","1285","1","digit-span","true","0","","null","<div class = centerbox><div class = center-text>4 Digits</p></div>","null","test_intro","","","","","","","","","","","","","","",""
"poldrack-multi-stim-multi-response","74","307180","0.0-15.0-1.0","1285","1","digit-span","true","0","","[-1]","","","stim","","[""<div class = centerbox><div class = digit-span-text>7</div></div>"",""<div class = centerbox><div class = digit-span-text>2</div></div>"",""<div class = centerbox><div class = digit-span-text>9</div></div>"",""<div class = centerbox><div class = digit-span-text>6</div></div>""]","[-1]","none","[1000,1000,1000,1000]","4800","0","test","7,2,9,6","4","","","","",""
"single-stim-button","75","312608","0.0-15.0-2.0","1285","1","digit-span","true","0","","5428","","","response","","","","","","5428","1000","test","7,2,9,6","4","SubmitButton","5428","6,9,2,7","reverse","true"
"html-keyboard-response","76","313609","0.0-15.0-3.0","1285","1","digit-span","true","0","","null","<div class = centerbox><div class = center-text>4 Digits</p></div>","null","test_intro","","","","","","","","","","","","","","",""
"poldrack-multi-stim-multi-response","77","319414","0.0-15.0-4.0","1285","1","digit-span","true","0","","[-1]","","","stim","","[""<div class = centerbox><div class = digit-span-text>8</div></div>"",""<div class = centerbox><div class = digit-span-text>4</div></div>"",""<div class = centerbox><div class = digit-span-text>9</div></div>"",""<div class = centerbox><div class = digit-span-text>3</div></div>""]","[-1]","none","[1000,1000,1000,1000]","4800","0","test","8,4,9,3","4","","","","",""
"single-stim-button","78","324072","0.0-15.0-5.0","1285","1","digit-span","true","0","","4658","","","response","","","","","","4658","1000","test","8,4,9,3","4","SubmitButton","4658","3,9,4,8","reverse","true"
"html-keyboard-response","79","325073","0.0-16.0-0.0","1285","1","digit-span","true","0","","null","<div class = centerbox><div class = center-text>5 Digits</p></div>","null","test_intro","","","","","","","","","","","","","","",""
"poldrack-multi-stim-multi-response","80","332075","0.0-16.0-1.0","1285","1","digit-span","true","0","","[-1]","","","stim","","[""<div class = centerbox><div class = digit-span-text>4</div></div>"",""<div class = centerbox><div class = digit-span-text>1</div></div>"",""<div class = centerbox><div class = digit-span-text>3</div></div>"",""<div class = centerbox><div class = digit-span-text>5</div></div>"",""<div class = centerbox><div class = digit-span-text>7</div></div>""]","[-1]","none","[1000,1000,1000,1000,1000]","6000","0","test","4,1,3,5,7","5","","","","",""
"single-stim-button","81","347341","0.0-16.0-2.0","1285","1","digit-span","true","0","","15266","","","response","","","","","","15266","1000","test","4,1,3,5,7","5","SubmitButton","15266","7,9,3,1,4","reverse","false"
"html-keyboard-response","82","348343","0.0-16.0-3.0","1285","1","digit-span","true","0","","null","<div class = centerbox><div class = center-text>5 Digits</p></div>","null","test_intro","","","","","","","","","","","","","","",""
"poldrack-multi-stim-multi-response","83","355348","0.0-16.0-4.0","1285","1","digit-span","true","0","","[-1]","","","stim","","[""<div class = centerbox><div class = digit-span-text>9</div></div>"",""<div class = centerbox><div class = digit-span-text>7</div></div>"",""<div class = centerbox><div class = digit-span-text>8</div></div>"",""<div class = centerbox><div class = digit-span-text>5</div></div>"",""<div class = centerbox><div class = digit-span-text>2</div></div>""]","[-1]","none","[1000,1000,1000,1000,1000]","6000","0","test","9,7,8,5,2","5","","","","",""
"single-stim-button","84","379726","0.0-16.0-5.0","1285","1","digit-span","true","0","","24376","","","response","","","","","","24376","1000","test","9,7,8,5,2","5","SubmitButton","24376","2,5,8,7,9","reverse","true"
"html-keyboard-response","85","380727","0.0-17.0-0.0","1285","1","digit-span","true","0","","null","<div class = centerbox><div class = center-text>6 Digits</p></div>","null","test_intro","","","","","","","","","","","","","","",""
"poldrack-multi-stim-multi-response","86","388928","0.0-17.0-1.0","1285","1","digit-span","true","0","","[-1]","","","stim","","[""<div class = centerbox><div class = digit-span-text>1</div></div>"",""<div class = centerbox><div class = digit-span-text>6</div></div>"",""<div class = centerbox><div class = digit-span-text>5</div></div>"",""<div class = centerbox><div class = digit-span-text>2</div></div>"",""<div class = centerbox><div class = digit-span-text>9</div></div>"",""<div class = centerbox><div class = digit-span-text>8</div></div>""]","[-1]","none","[1000,1000,1000,1000,1000,1000]","7200","0","test","1,6,5,2,9,8","6","","","","",""
"single-stim-button","87","393308","0.0-17.0-2.0","1285","1","digit-span","true","0","","4378","","","response","","","","","","4378","1000","test","1,6,5,2,9,8","6","SubmitButton","4378","9,7,8,1,6","reverse","false"
"html-keyboard-response","88","394309","0.0-17.0-3.0","1285","1","digit-span","true","0","","null","<div class = centerbox><div class = center-text>6 Digits</p></div>","null","test_intro","","","","","","","","","","","","","","",""
"poldrack-multi-stim-multi-response","89","402512","0.0-17.0-4.0","1285","1","digit-span","true","0","","[-1]","","","stim","","[""<div class = centerbox><div class = digit-span-text>3</div></div>"",""<div class = centerbox><div class = digit-span-text>6</div></div>"",""<div class = centerbox><div class = digit-span-text>7</div></div>"",""<div class = centerbox><div class = digit-span-text>1</div></div>"",""<div class = centerbox><div class = digit-span-text>9</div></div>"",""<div class = centerbox><div class = digit-span-text>4</div></div>""]","[-1]","none","[1000,1000,1000,1000,1000,1000]","7200","0","test","3,6,7,1,9,4","6","","","","",""
"single-stim-button","90","416932","0.0-17.0-5.0","1285","1","digit-span","true","0","","14418","","","response","","","","","","14418","1000","test","3,6,7,1,9,4","6","SubmitButton","14418","4,9,1,7,6,3","reverse","true"
"html-keyboard-response","91","417934","0.0-18.0-0.0","1285","1","digit-span","true","0","","null","<div class = centerbox><div class = center-text>7 Digits</p></div>","null","test_intro","","","","","","","","","","","","","","",""
"poldrack-multi-stim-multi-response","92","427338","0.0-18.0-1.0","1285","1","digit-span","true","0","","[-1]","","","stim","","[""<div class = centerbox><div class = digit-span-text>8</div></div>"",""<div class = centerbox><div class = digit-span-text>5</div></div>"",""<div class = centerbox><div class = digit-span-text>9</div></div>"",""<div class = centerbox><div class = digit-span-text>2</div></div>"",""<div class = centerbox><div class = digit-span-text>3</div></div>"",""<div class = centerbox><div class = digit-span-text>4</div></div>"",""<div class = centerbox><div class = digit-span-text>2</div></div>""]","[-1]","none","[1000,1000,1000,1000,1000,1000,1000]","8400","0","test","8,5,9,2,3,4,2","7","","","","",""
"single-stim-button","93","462978","0.0-18.0-2.0","1285","1","digit-span","true","0","","35639","","","response","","","","","","35639","1000","test","8,5,9,2,3,4,2","7","SubmitButton","35639","2,4,3,2,9,5,8","reverse","true"
"html-keyboard-response","94","463980","0.0-18.0-3.0","1285","1","digit-span","true","0","","null","<div class = centerbox><div class = center-text>7 Digits</p></div>","null","test_intro","","","","","","","","","","","","","","",""
"poldrack-multi-stim-multi-response","95","473383","0.0-18.0-4.0","1285","1","digit-span","true","0","","[-1]","","","stim","","[""<div class = centerbox><div class = digit-span-text>4</div></div>"",""<div class = centerbox><div class = digit-span-text>5</div></div>"",""<div class = centerbox><div class = digit-span-text>7</div></div>"",""<div class = centerbox><div class = digit-span-text>9</div></div>"",""<div class = centerbox><div class = digit-span-text>2</div></div>"",""<div class = centerbox><div class = digit-span-text>8</div></div>"",""<div class = centerbox><div class = digit-span-text>1</div></div>""]","[-1]","none","[1000,1000,1000,1000,1000,1000,1000]","8400","0","test","4,5,7,9,2,8,1","7","","","","",""
"single-stim-button","96","481074","0.0-18.0-5.0","1285","1","digit-span","true","0","","7690","","","response","","","","","","7690","1000","test","4,5,7,9,2,8,1","7","SubmitButton","7690","1,2,8,7,9,5,4","reverse","false"
"html-keyboard-response","97","482075","0.0-19.0-0.0","1285","1","digit-span","true","0","","null","<div class = centerbox><div class = center-text>8 Digits</p></div>","null","test_intro","","","","","","","","","","","","","","",""
"poldrack-multi-stim-multi-response","98","492679","0.0-19.0-1.0","1285","1","digit-span","true","0","","[-1]","","","stim","","[""<div class = centerbox><div class = digit-span-text>6</div></div>"",""<div class = centerbox><div class = digit-span-text>9</div></div>"",""<div class = centerbox><div class = digit-span-text>1</div></div>"",""<div class = centerbox><div class = digit-span-text>6</div></div>"",""<div class = centerbox><div class = digit-span-text>3</div></div>"",""<div class = centerbox><div class = digit-span-text>2</div></div>"",""<div class = centerbox><div class = digit-span-text>5</div></div>"",""<div class = centerbox><div class = digit-span-text>8</div></div>""]","[-1]","none","[1000,1000,1000,1000,1000,1000,1000,1000]","9600","0","test","6,9,1,6,3,2,5,8","8","","","","",""
"single-stim-button","99","502114","0.0-19.0-2.0","1285","1","digit-span","true","0","","9434","","","response","","","","","","9434","1000","test","6,9,1,6,3,2,5,8","8","SubmitButton","9434","8,5,3,2,6,9,1,6","reverse","false"
"html-keyboard-response","100","503116","0.0-19.0-3.0","1285","1","digit-span","true","0","","null","<div class = centerbox><div class = center-text>8 Digits</p></div>","null","test_intro","","","","","","","","","","","","","","",""
"poldrack-multi-stim-multi-response","101","513720","0.0-19.0-4.0","1285","1","digit-span","true","0","","[-1]","","","stim","","[""<div class = centerbox><div class = digit-span-text>3</div></div>"",""<div class = centerbox><div class = digit-span-text>1</div></div>"",""<div class = centerbox><div class = digit-span-text>7</div></div>"",""<div class = centerbox><div class = digit-span-text>9</div></div>"",""<div class = centerbox><div class = digit-span-text>5</div></div>"",""<div class = centerbox><div class = digit-span-text>4</div></div>"",""<div class = centerbox><div class = digit-span-text>8</div></div>"",""<div class = centerbox><div class = digit-span-text>2</div></div>""]","[-1]","none","[1000,1000,1000,1000,1000,1000,1000,1000]","9600","0","test","3,1,7,9,5,4,8,2","8","","","","",""
"single-stim-button","102","527538","0.0-19.0-5.0","1285","1","digit-span","true","0","","13817","","","response","","","","","","13817","1000","test","3,1,7,9,5,4,8,2","8","SubmitButton","13817","8,2,4,5,1,7,3,9","reverse","false"
"image-keyboard-response","103","530762","0.0-20.0","1285","1","digit-span","true","0","","3223.100000000093","img/trophy2.jpeg","13","end","","","","","","","","","","","","","","",""
