"trial_type","trial_index","time_elapsed","internal_node_id","subject","order","exp_id","full_screen","focus_shifts","success","rt","stimulus","key_press","trial_id","view_history","stimuli","key_presses","possible_responses","stim_durations","block_duration","timing_post_trial","exp_stage","sequence","num_digits","mouse_click","stim_duration","response","condition","correct"
"pavlovia","0","3525","0.0-0.0","2132","2","digit-span","true","0","","","","","","","","","","","","","","","","","","","",""
"fullscreen","1","10936","0.0-1.0","2132","2","digit-span","true","0","true","","","","","","","","","","","","","","","","","","",""
"html-keyboard-response","2","15708","0.0-2.0-0.0","2132","2","digit-span","true","0","","4769.700000047684","<div class = centerbox><p class = center-block-text>Welcome to the number game! It will take less than 5 minutes. Press <strong>""Enter/Return""</strong> to begin.</p></div>","13","instruction","","","","","","","","","","","","","","",""
"instructions","3","54290","0.0-2.0-1.0","2132","2","digit-span","true","0","","38580.799999952316","","","instruction","[{""page_index"":0,""viewing_time"":38580.299999952316}]","","","","","","","","","","","","","",""
"instructions","4","68843","0.0-2.0-2.0","2132","2","digit-span","true","0","","13546","","","instruction","[{""page_index"":0,""viewing_time"":13545.5}]","","","","","","","","","","","","","",""
"html-keyboard-response","5","70865","0.0-3.0-0.0","2132","2","digit-span","true","0","","null","<div class = centerbox><div class = center-text>2 Digits</p></div>","null","test_intro","","","","","","","","","","","","","","",""
"poldrack-multi-stim-multi-response","6","74295","0.0-3.0-1.0","2132","2","digit-span","true","0","","[-1]","","","stim","","[""<div class = centerbox><div class = digit-span-text>2</div></div>"",""<div class = centerbox><div class = digit-span-text>9</div></div>""]","[-1]","none","[1000,1000]","2400","0","test","2,9","2","","","","",""
"single-stim-button","7","78490","0.0-3.0-2.0","2132","2","digit-span","true","0","","4193","","","response","","","","","","4193","1000","test","2,9","2","SubmitButton","4193","2,9","forward","true"
"html-keyboard-response","8","79500","0.0-3.0-3.0","2132","2","digit-span","true","0","","null","<div class = centerbox><div class = center-text>2 Digits</p></div>","null","test_intro","","","","","","","","","","","","","","",""
"poldrack-multi-stim-multi-response","9","82917","0.0-3.0-4.0","2132","2","digit-span","true","0","","[-1]","","","stim","","[""<div class = centerbox><div class = digit-span-text>4</div></div>"",""<div class = centerbox><div class = digit-span-text>6</div></div>""]","[-1]","none","[1000,1000]","2400","0","test","4,6","2","","","","",""
"single-stim-button","10","92166","0.0-3.0-5.0","2132","2","digit-span","true","0","","9247","","","response","","","","","","9247","1000","test","4,6","2","SubmitButton","9247","4,6","forward","true"
"html-keyboard-response","11","93179","0.0-4.0-0.0","2132","2","digit-span","true","0","","null","<div class = centerbox><div class = center-text>3 Digits</p></div>","null","test_intro","","","","","","","","","","","","","","",""
"poldrack-multi-stim-multi-response","12","97801","0.0-4.0-1.0","2132","2","digit-span","true","0","","[-1]","","","stim","","[""<div class = centerbox><div class = digit-span-text>3</div></div>"",""<div class = centerbox><div class = digit-span-text>8</div></div>"",""<div class = centerbox><div class = digit-span-text>6</div></div>""]","[-1]","none","[1000,1000,1000]","3600","0","test","3,8,6","3","","","","",""
"single-stim-button","13","108700","0.0-4.0-2.0","2132","2","digit-span","true","0","","10897","","","response","","","","","","10897","1000","test","3,8,6","3","SubmitButton","10897","3","forward","false"
"html-keyboard-response","14","109705","0.0-4.0-3.0","2132","2","digit-span","true","0","","null","<div class = centerbox><div class = center-text>3 Digits</p></div>","null","test_intro","","","","","","","","","","","","","","",""
"poldrack-multi-stim-multi-response","15","114313","0.0-4.0-4.0","2132","2","digit-span","true","0","","[-1]","","","stim","","[""<div class = centerbox><div class = digit-span-text>6</div></div>"",""<div class = centerbox><div class = digit-span-text>1</div></div>"",""<div class = centerbox><div class = digit-span-text>2</div></div>""]","[-1]","none","[1000,1000,1000]","3600","0","test","6,1,2","3","","","","",""
"single-stim-button","16","120785","0.0-4.0-5.0","2132","2","digit-span","true","0","","6471","","","response","","","","","","6471","1000","test","6,1,2","3","SubmitButton","6471","6,1,2","forward","true"
"html-keyboard-response","17","121794","0.0-5.0-0.0","2132","2","digit-span","true","0","","null","<div class = centerbox><div class = center-text>4 Digits</p></div>","null","test_intro","","","","","","","","","","","","","","",""
"poldrack-multi-stim-multi-response","18","127612","0.0-5.0-1.0","2132","2","digit-span","true","0","","[-1]","","","stim","","[""<div class = centerbox><div class = digit-span-text>3</div></div>"",""<div class = centerbox><div class = digit-span-text>4</div></div>"",""<div class = centerbox><div class = digit-span-text>1</div></div>"",""<div class = centerbox><div class = digit-span-text>7</div></div>""]","[-1]","none","[1000,1000,1000,1000]","4800","0","test","3,4,1,7","4","","","","",""
"single-stim-button","19","135489","0.0-5.0-2.0","2132","2","digit-span","true","0","","7875","","","response","","","","","","7875","1000","test","3,4,1,7","4","SubmitButton","7875","3,4,1,7","forward","true"
"html-keyboard-response","20","136499","0.0-5.0-3.0","2132","2","digit-span","true","0","","null","<div class = centerbox><div class = center-text>4 Digits</p></div>","null","test_intro","","","","","","","","","","","","","","",""
"poldrack-multi-stim-multi-response","21","142322","0.0-5.0-4.0","2132","2","digit-span","true","0","","[-1]","","","stim","","[""<div class = centerbox><div class = digit-span-text>6</div></div>"",""<div class = centerbox><div class = digit-span-text>1</div></div>"",""<div class = centerbox><div class = digit-span-text>5</div></div>"",""<div class = centerbox><div class = digit-span-text>8</div></div>""]","[-1]","none","[1000,1000,1000,1000]","4800","0","test","6,1,5,8","4","","","","",""
"single-stim-button","22","147043","0.0-5.0-5.0","2132","2","digit-span","true","0","","4719","","","response","","","","","","4719","1000","test","6,1,5,8","4","SubmitButton","4719","6,1,5,8","forward","true"
"html-keyboard-response","23","148050","0.0-6.0-0.0","2132","2","digit-span","true","0","","null","<div class = centerbox><div class = center-text>5 Digits</p></div>","null","test_intro","","","","","","","","","","","","","","",""
"poldrack-multi-stim-multi-response","24","155064","0.0-6.0-1.0","2132","2","digit-span","true","0","","[-1]","","","stim","","[""<div class = centerbox><div class = digit-span-text>8</div></div>"",""<div class = centerbox><div class = digit-span-text>4</div></div>"",""<div class = centerbox><div class = digit-span-text>2</div></div>"",""<div class = centerbox><div class = digit-span-text>3</div></div>"",""<div class = centerbox><div class = digit-span-text>9</div></div>""]","[-1]","none","[1000,1000,1000,1000,1000]","6000","0","test","8,4,2,3,9","5","","","","",""
"single-stim-button","25","160999","0.0-6.0-2.0","2132","2","digit-span","true","0","","5933","","","response","","","","","","5933","1000","test","8,4,2,3,9","5","SubmitButton","5933","2,3,9","forward","false"
"html-keyboard-response","26","162009","0.0-6.0-3.0","2132","2","digit-span","true","0","","null","<div class = centerbox><div class = center-text>5 Digits</p></div>","null","test_intro","","","","","","","","","","","","","","",""
"poldrack-multi-stim-multi-response","27","169024","0.0-6.0-4.0","2132","2","digit-span","true","0","","[-1]","","","stim","","[""<div class = centerbox><div class = digit-span-text>5</div></div>"",""<div class = centerbox><div class = digit-span-text>2</div></div>"",""<div class = centerbox><div class = digit-span-text>1</div></div>"",""<div class = centerbox><div class = digit-span-text>8</div></div>"",""<div class = centerbox><div class = digit-span-text>6</div></div>""]","[-1]","none","[1000,1000,1000,1000,1000]","6000","0","test","5,2,1,8,6","5","","","","",""
"single-stim-button","28","174530","0.0-6.0-5.0","2132","2","digit-span","true","0","","5503","","","response","","","","","","5503","1000","test","5,2,1,8,6","5","SubmitButton","5503","5,2,1,8,6","forward","true"
"html-keyboard-response","29","175543","0.0-7.0-0.0","2132","2","digit-span","true","0","","null","<div class = centerbox><div class = center-text>6 Digits</p></div>","null","test_intro","","","","","","","","","","","","","","",""
"poldrack-multi-stim-multi-response","30","183755","0.0-7.0-1.0","2132","2","digit-span","true","0","","[-1]","","","stim","","[""<div class = centerbox><div class = digit-span-text>3</div></div>"",""<div class = centerbox><div class = digit-span-text>8</div></div>"",""<div class = centerbox><div class = digit-span-text>9</div></div>"",""<div class = centerbox><div class = digit-span-text>1</div></div>"",""<div class = centerbox><div class = digit-span-text>7</div></div>"",""<div class = centerbox><div class = digit-span-text>4</div></div>""]","[-1]","none","[1000,1000,1000,1000,1000,1000]","7200","0","test","3,8,9,1,7,4","6","","","","",""
"single-stim-button","31","193630","0.0-7.0-2.0","2132","2","digit-span","true","0","","9873","","","response","","","","","","9873","1000","test","3,8,9,1,7,4","6","SubmitButton","9873","3,8,9,7,1,4","forward","false"
"html-keyboard-response","32","194646","0.0-7.0-3.0","2132","2","digit-span","true","0","","null","<div class = centerbox><div class = center-text>6 Digits</p></div>","null","test_intro","","","","","","","","","","","","","","",""
"poldrack-multi-stim-multi-response","33","202864","0.0-7.0-4.0","2132","2","digit-span","true","0","","[-1]","","","stim","","[""<div class = centerbox><div class = digit-span-text>7</div></div>"",""<div class = centerbox><div class = digit-span-text>9</div></div>"",""<div class = centerbox><div class = digit-span-text>6</div></div>"",""<div class = centerbox><div class = digit-span-text>4</div></div>"",""<div class = centerbox><div class = digit-span-text>8</div></div>"",""<div class = centerbox><div class = digit-span-text>3</div></div>""]","[-1]","none","[1000,1000,1000,1000,1000,1000]","7200","0","test","7,9,6,4,8,3","6","","","","",""
"single-stim-button","34","216842","0.0-7.0-5.0","2132","2","digit-span","true","0","","13975","","","response","","","","","","13975","1000","test","7,9,6,4,8,3","6","SubmitButton","13975","7,9,6,4,8,3","forward","true"
"html-keyboard-response","35","217854","0.0-8.0-0.0","2132","2","digit-span","true","0","","null","<div class = centerbox><div class = center-text>7 Digits</p></div>","null","test_intro","","","","","","","","","","","","","","",""
"poldrack-multi-stim-multi-response","36","227269","0.0-8.0-1.0","2132","2","digit-span","true","0","","[-1]","","","stim","","[""<div class = centerbox><div class = digit-span-text>5</div></div>"",""<div class = centerbox><div class = digit-span-text>1</div></div>"",""<div class = centerbox><div class = digit-span-text>7</div></div>"",""<div class = centerbox><div class = digit-span-text>4</div></div>"",""<div class = centerbox><div class = digit-span-text>2</div></div>"",""<div class = centerbox><div class = digit-span-text>3</div></div>"",""<div class = centerbox><div class = digit-span-text>8</div></div>""]","[-1]","none","[1000,1000,1000,1000,1000,1000,1000]","8400","0","test","5,1,7,4,2,3,8","7","","","","",""
"single-stim-button","37","255653","0.0-8.0-2.0","2132","2","digit-span","true","0","","28381","","","response","","","","","","28381","1000","test","5,1,7,4,2,3,8","7","SubmitButton","28381","5,1,7,4,2,3,8","forward","true"
"html-keyboard-response","38","256666","0.0-8.0-3.0","2132","2","digit-span","true","0","","null","<div class = centerbox><div class = center-text>7 Digits</p></div>","null","test_intro","","","","","","","","","","","","","","",""
"poldrack-multi-stim-multi-response","39","266079","0.0-8.0-4.0","2132","2","digit-span","true","0","","[-1]","","","stim","","[""<div class = centerbox><div class = digit-span-text>9</div></div>"",""<div class = centerbox><div class = digit-span-text>8</div></div>"",""<div class = centerbox><div class = digit-span-text>5</div></div>"",""<div class = centerbox><div class = digit-span-text>2</div></div>"",""<div class = centerbox><div class = digit-span-text>1</div></div>"",""<div class = centerbox><div class = digit-span-text>6</div></div>"",""<div class = centerbox><div class = digit-span-text>3</div></div>""]","[-1]","none","[1000,1000,1000,1000,1000,1000,1000]","8400","0","test","9,8,5,2,1,6,3","7","","","","",""
"single-stim-button","40","279772","0.0-8.0-5.0","2132","2","digit-span","true","0","","13690","","","response","","","","","","13690","1000","test","9,8,5,2,1,6,3","7","SubmitButton","13690","9,8,5,2,1,6,3","forward","true"
"html-keyboard-response","41","280778","0.0-9.0-0.0","2132","2","digit-span","true","0","","null","<div class = centerbox><div class = center-text>8 Digits</p></div>","null","test_intro","","","","","","","","","","","","","","",""
"poldrack-multi-stim-multi-response","42","291385","0.0-9.0-1.0","2132","2","digit-span","true","0","","[-1]","","","stim","","[""<div class = centerbox><div class = digit-span-text>1</div></div>"",""<div class = centerbox><div class = digit-span-text>6</div></div>"",""<div class = centerbox><div class = digit-span-text>4</div></div>"",""<div class = centerbox><div class = digit-span-text>5</div></div>"",""<div class = centerbox><div class = digit-span-text>9</div></div>"",""<div class = centerbox><div class = digit-span-text>7</div></div>"",""<div class = centerbox><div class = digit-span-text>6</div></div>"",""<div class = centerbox><div class = digit-span-text>3</div></div>""]","[-1]","none","[1000,1000,1000,1000,1000,1000,1000,1000]","9600","0","test","1,6,4,5,9,7,6,3","8","","","","",""
"single-stim-button","43","334193","0.0-9.0-2.0","2132","2","digit-span","true","0","","42806","","","response","","","","","","42806","1000","test","1,6,4,5,9,7,6,3","8","SubmitButton","42806","1,6,4,5,9,7,6,3","forward","true"
"html-keyboard-response","44","335203","0.0-9.0-3.0","2132","2","digit-span","true","0","","null","<div class = centerbox><div class = center-text>8 Digits</p></div>","null","test_intro","","","","","","","","","","","","","","",""
"poldrack-multi-stim-multi-response","45","345822","0.0-9.0-4.0","2132","2","digit-span","true","0","","[-1]","","","stim","","[""<div class = centerbox><div class = digit-span-text>2</div></div>"",""<div class = centerbox><div class = digit-span-text>9</div></div>"",""<div class = centerbox><div class = digit-span-text>7</div></div>"",""<div class = centerbox><div class = digit-span-text>6</div></div>"",""<div class = centerbox><div class = digit-span-text>3</div></div>"",""<div class = centerbox><div class = digit-span-text>1</div></div>"",""<div class = centerbox><div class = digit-span-text>5</div></div>"",""<div class = centerbox><div class = digit-span-text>4</div></div>""]","[-1]","none","[1000,1000,1000,1000,1000,1000,1000,1000]","9600","0","test","2,9,7,6,3,1,5,4","8","","","","",""
"single-stim-button","46","366849","0.0-9.0-5.0","2132","2","digit-span","true","0","","21025","","","response","","","","","","21025","1000","test","2,9,7,6,3,1,5,4","8","SubmitButton","21025","2,9,7,6,3,1,5,4","forward","true"
"html-keyboard-response","47","367864","0.0-10.0-0.0","2132","2","digit-span","true","0","","null","<div class = centerbox><div class = center-text>9 Digits</p></div>","null","test_intro","","","","","","","","","","","","","","",""
"poldrack-multi-stim-multi-response","48","379683","0.0-10.0-1.0","2132","2","digit-span","true","0","","[-1]","","","stim","","[""<div class = centerbox><div class = digit-span-text>5</div></div>"",""<div class = centerbox><div class = digit-span-text>3</div></div>"",""<div class = centerbox><div class = digit-span-text>8</div></div>"",""<div class = centerbox><div class = digit-span-text>7</div></div>"",""<div class = centerbox><div class = digit-span-text>1</div></div>"",""<div class = centerbox><div class = digit-span-text>2</div></div>"",""<div class = centerbox><div class = digit-span-text>4</div></div>"",""<div class = centerbox><div class = digit-span-text>6</div></div>"",""<div class = centerbox><div class = digit-span-text>9</div></div>""]","[-1]","none","[1000,1000,1000,1000,1000,1000,1000,1000,1000]","10800","0","test","5,3,8,7,1,2,4,6,9","9","","","","",""
"single-stim-button","49","419274","0.0-10.0-2.0","2132","2","digit-span","true","0","","39588","","","response","","","","","","39588","1000","test","5,3,8,7,1,2,4,6,9","9","SubmitButton","39588","5,3,8,7,1,2,4,6,9","forward","true"
"html-keyboard-response","50","420284","0.0-10.0-3.0","2132","2","digit-span","true","0","","null","<div class = centerbox><div class = center-text>9 Digits</p></div>","null","test_intro","","","","","","","","","","","","","","",""
"poldrack-multi-stim-multi-response","51","432112","0.0-10.0-4.0","2132","2","digit-span","true","0","","[-1]","","","stim","","[""<div class = centerbox><div class = digit-span-text>4</div></div>"",""<div class = centerbox><div class = digit-span-text>2</div></div>"",""<div class = centerbox><div class = digit-span-text>6</div></div>"",""<div class = centerbox><div class = digit-span-text>9</div></div>"",""<div class = centerbox><div class = digit-span-text>1</div></div>"",""<div class = centerbox><div class = digit-span-text>7</div></div>"",""<div class = centerbox><div class = digit-span-text>8</div></div>"",""<div class = centerbox><div class = digit-span-text>3</div></div>"",""<div class = centerbox><div class = digit-span-text>5</div></div>""]","[-1]","none","[1000,1000,1000,1000,1000,1000,1000,1000,1000]","10800","0","test","4,2,6,9,1,7,8,3,5","9","","","","",""
"single-stim-button","52","456705","0.0-10.0-5.0","2132","2","digit-span","true","0","","24591","","","response","","","","","","24591","1000","test","4,2,6,9,1,7,8,3,5","9","SubmitButton","24591","4,2,6,9,1,7,8,3,5","forward","true"
"html-keyboard-response","53","466818","0.0-11.0","2132","2","digit-span","true","0","","10110.5","<div class = centerbox><p class = block-text>Now, you will see some numbers, but this time you will enter them <strong>backward</strong>.<br><br>For example, you see <strong>“1—5”</strong>, and you will enter <strong>“5—1”</strong>.<br><br><br>Press <strong>""Enter/Return""</strong> to begin.</p></div>","13","start_reverse","","","","","","","","","","","","","","",""
"html-keyboard-response","54","467823","0.0-12.0-0.0","2132","2","digit-span","true","0","","null","<div class = centerbox><div class = center-text>2 Digits</p></div>","null","test_intro","","","","","","","","","","","","","","",""
"poldrack-multi-stim-multi-response","55","471230","0.0-12.0-1.0","2132","2","digit-span","true","0","","[-1]","","","stim","","[""<div class = centerbox><div class = digit-span-text>8</div></div>"",""<div class = centerbox><div class = digit-span-text>2</div></div>""]","[-1]","none","[1000,1000]","2400","0","test","8,2","2","","","","",""
"single-stim-button","56","500421","0.0-12.0-2.0","2132","2","digit-span","true","0","","29190","","","response","","","","","","29190","1000","test","8,2","2","SubmitButton","29190","2,8","practice","true"
"html-keyboard-response","57","510427","0.0-12.0-3.0","2132","2","digit-span","true","0","","null","<div class = centerbox><div class = center-block-text><span style=""color:green"">Correct!</span></div></div>","null","feedback","","","","","","","","","","","","","","",""
"html-keyboard-response","58","511435","0.0-12.0-4.0","2132","2","digit-span","true","0","","null","<div class = centerbox><div class = center-text>2 Digits</p></div>","null","test_intro","","","","","","","","","","","","","","",""
"poldrack-multi-stim-multi-response","59","514849","0.0-12.0-5.0","2132","2","digit-span","true","0","","[-1]","","","stim","","[""<div class = centerbox><div class = digit-span-text>5</div></div>"",""<div class = centerbox><div class = digit-span-text>6</div></div>""]","[-1]","none","[1000,1000]","2400","0","test","5,6","2","","","","",""
"single-stim-button","60","517127","0.0-12.0-6.0","2132","2","digit-span","true","0","","2277","","","response","","","","","","2277","1000","test","5,6","2","SubmitButton","2277","6,5","practice","true"
"html-keyboard-response","61","518134","0.0-13.0-0.0","2132","2","digit-span","true","0","","null","<div class = centerbox><div class = center-text>2 Digits</p></div>","null","test_intro","","","","","","","","","","","","","","",""
"poldrack-multi-stim-multi-response","62","521552","0.0-13.0-1.0","2132","2","digit-span","true","0","","[-1]","","","stim","","[""<div class = centerbox><div class = digit-span-text>2</div></div>"",""<div class = centerbox><div class = digit-span-text>5</div></div>""]","[-1]","none","[1000,1000]","2400","0","test","2,5","2","","","","",""
"single-stim-button","63","523997","0.0-13.0-2.0","2132","2","digit-span","true","0","","2443","","","response","","","","","","2443","1000","test","2,5","2","SubmitButton","2443","5,2","reverse","true"
"html-keyboard-response","64","525015","0.0-13.0-3.0","2132","2","digit-span","true","0","","null","<div class = centerbox><div class = center-text>2 Digits</p></div>","null","test_intro","","","","","","","","","","","","","","",""
"poldrack-multi-stim-multi-response","65","528422","0.0-13.0-4.0","2132","2","digit-span","true","0","","[-1]","","","stim","","[""<div class = centerbox><div class = digit-span-text>6</div></div>"",""<div class = centerbox><div class = digit-span-text>3</div></div>""]","[-1]","none","[1000,1000]","2400","0","test","6,3","2","","","","",""
"single-stim-button","66","531371","0.0-13.0-5.0","2132","2","digit-span","true","0","","2948","","","response","","","","","","2948","1000","test","6,3","2","SubmitButton","2948","3,6","reverse","true"
"html-keyboard-response","67","532377","0.0-14.0-0.0","2132","2","digit-span","true","0","","null","<div class = centerbox><div class = center-text>3 Digits</p></div>","null","test_intro","","","","","","","","","","","","","","",""
"poldrack-multi-stim-multi-response","68","536985","0.0-14.0-1.0","2132","2","digit-span","true","0","","[-1]","","","stim","","[""<div class = centerbox><div class = digit-span-text>5</div></div>"",""<div class = centerbox><div class = digit-span-text>7</div></div>"",""<div class = centerbox><div class = digit-span-text>4</div></div>""]","[-1]","none","[1000,1000,1000]","3600","0","test","5,7,4","3","","","","",""
"single-stim-button","69","544830","0.0-14.0-2.0","2132","2","digit-span","true","0","","7843","","","response","","","","","","7843","1000","test","5,7,4","3","SubmitButton","7843","4,7,5","reverse","true"
"html-keyboard-response","70","545840","0.0-14.0-3.0","2132","2","digit-span","true","0","","null","<div class = centerbox><div class = center-text>3 Digits</p></div>","null","test_intro","","","","","","","","","","","","","","",""
"poldrack-multi-stim-multi-response","71","550448","0.0-14.0-4.0","2132","2","digit-span","true","0","","[-1]","","","stim","","[""<div class = centerbox><div class = digit-span-text>2</div></div>"",""<div class = centerbox><div class = digit-span-text>5</div></div>"",""<div class = centerbox><div class = digit-span-text>9</div></div>""]","[-1]","none","[1000,1000,1000]","3600","0","test","2,5,9","3","","","","",""
"single-stim-button","72","556710","0.0-14.0-5.0","2132","2","digit-span","true","0","","6262","","","response","","","","","","6262","1000","test","2,5,9","3","SubmitButton","6262","9,5,2","reverse","true"
"html-keyboard-response","73","557723","0.0-15.0-0.0","2132","2","digit-span","true","0","","null","<div class = centerbox><div class = center-text>4 Digits</p></div>","null","test_intro","","","","","","","","","","","","","","",""
"poldrack-multi-stim-multi-response","74","563529","0.0-15.0-1.0","2132","2","digit-span","true","0","","[-1]","","","stim","","[""<div class = centerbox><div class = digit-span-text>7</div></div>"",""<div class = centerbox><div class = digit-span-text>2</div></div>"",""<div class = centerbox><div class = digit-span-text>9</div></div>"",""<div class = centerbox><div class = digit-span-text>6</div></div>""]","[-1]","none","[1000,1000,1000,1000]","4800","0","test","7,2,9,6","4","","","","",""
"single-stim-button","75","572838","0.0-15.0-2.0","2132","2","digit-span","true","0","","9307","","","response","","","","","","9307","1000","test","7,2,9,6","4","SubmitButton","9307","6,9,2,7","reverse","true"
"html-keyboard-response","76","573852","0.0-15.0-3.0","2132","2","digit-span","true","0","","null","<div class = centerbox><div class = center-text>4 Digits</p></div>","null","test_intro","","","","","","","","","","","","","","",""
"poldrack-multi-stim-multi-response","77","579664","0.0-15.0-4.0","2132","2","digit-span","true","0","","[-1]","","","stim","","[""<div class = centerbox><div class = digit-span-text>8</div></div>"",""<div class = centerbox><div class = digit-span-text>4</div></div>"",""<div class = centerbox><div class = digit-span-text>9</div></div>"",""<div class = centerbox><div class = digit-span-text>3</div></div>""]","[-1]","none","[1000,1000,1000,1000]","4800","0","test","8,4,9,3","4","","","","",""
"single-stim-button","78","613565","0.0-15.0-5.0","2132","2","digit-span","true","0","","33899","","","response","","","","","","33899","1000","test","8,4,9,3","4","SubmitButton","33899","3,9,4,8","reverse","true"
"html-keyboard-response","79","614570","0.0-16.0-0.0","2132","2","digit-span","true","0","","null","<div class = centerbox><div class = center-text>5 Digits</p></div>","null","test_intro","","","","","","","","","","","","","","",""
"poldrack-multi-stim-multi-response","80","621587","0.0-16.0-1.0","2132","2","digit-span","true","0","","[-1]","","","stim","","[""<div class = centerbox><div class = digit-span-text>4</div></div>"",""<div class = centerbox><div class = digit-span-text>1</div></div>"",""<div class = centerbox><div class = digit-span-text>3</div></div>"",""<div class = centerbox><div class = digit-span-text>5</div></div>"",""<div class = centerbox><div class = digit-span-text>7</div></div>""]","[-1]","none","[1000,1000,1000,1000,1000]","6000","0","test","4,1,3,5,7","5","","","","",""
"single-stim-button","81","637053","0.0-16.0-2.0","2132","2","digit-span","true","0","","15463","","","response","","","","","","15463","1000","test","4,1,3,5,7","5","SubmitButton","15463","7,5,1,3,4","reverse","false"
"html-keyboard-response","82","638059","0.0-16.0-3.0","2132","2","digit-span","true","0","","null","<div class = centerbox><div class = center-text>5 Digits</p></div>","null","test_intro","","","","","","","","","","","","","","",""
"poldrack-multi-stim-multi-response","83","645075","0.0-16.0-4.0","2132","2","digit-span","true","0","","[-1]","","","stim","","[""<div class = centerbox><div class = digit-span-text>9</div></div>"",""<div class = centerbox><div class = digit-span-text>7</div></div>"",""<div class = centerbox><div class = digit-span-text>8</div></div>"",""<div class = centerbox><div class = digit-span-text>5</div></div>"",""<div class = centerbox><div class = digit-span-text>2</div></div>""]","[-1]","none","[1000,1000,1000,1000,1000]","6000","0","test","9,7,8,5,2","5","","","","",""
"single-stim-button","84","673151","0.0-16.0-5.0","2132","2","digit-span","true","0","","28074","","","response","","","","","","28074","1000","test","9,7,8,5,2","5","SubmitButton","28074","2,5,8,7,9","reverse","true"
"html-keyboard-response","85","674170","0.0-17.0-0.0","2132","2","digit-span","true","0","","null","<div class = centerbox><div class = center-text>6 Digits</p></div>","null","test_intro","","","","","","","","","","","","","","",""
"poldrack-multi-stim-multi-response","86","682388","0.0-17.0-1.0","2132","2","digit-span","true","0","","[-1]","","","stim","","[""<div class = centerbox><div class = digit-span-text>1</div></div>"",""<div class = centerbox><div class = digit-span-text>6</div></div>"",""<div class = centerbox><div class = digit-span-text>5</div></div>"",""<div class = centerbox><div class = digit-span-text>2</div></div>"",""<div class = centerbox><div class = digit-span-text>9</div></div>"",""<div class = centerbox><div class = digit-span-text>8</div></div>""]","[-1]","none","[1000,1000,1000,1000,1000,1000]","7200","0","test","1,6,5,2,9,8","6","","","","",""
"single-stim-button","87","703301","0.0-17.0-2.0","2132","2","digit-span","true","0","","20911","","","response","","","","","","20911","1000","test","1,6,5,2,9,8","6","SubmitButton","20911","8,9,2,5,6,1","reverse","true"
"html-keyboard-response","88","704310","0.0-17.0-3.0","2132","2","digit-span","true","0","","null","<div class = centerbox><div class = center-text>6 Digits</p></div>","null","test_intro","","","","","","","","","","","","","","",""
"poldrack-multi-stim-multi-response","89","712523","0.0-17.0-4.0","2132","2","digit-span","true","0","","[-1]","","","stim","","[""<div class = centerbox><div class = digit-span-text>3</div></div>"",""<div class = centerbox><div class = digit-span-text>6</div></div>"",""<div class = centerbox><div class = digit-span-text>7</div></div>"",""<div class = centerbox><div class = digit-span-text>1</div></div>"",""<div class = centerbox><div class = digit-span-text>9</div></div>"",""<div class = centerbox><div class = digit-span-text>4</div></div>""]","[-1]","none","[1000,1000,1000,1000,1000,1000]","7200","0","test","3,6,7,1,9,4","6","","","","",""
"single-stim-button","90","728032","0.0-17.0-5.0","2132","2","digit-span","true","0","","15507","","","response","","","","","","15507","1000","test","3,6,7,1,9,4","6","SubmitButton","15507","4,9,1,7,6,3","reverse","true"
"html-keyboard-response","91","729041","0.0-18.0-0.0","2132","2","digit-span","true","0","","null","<div class = centerbox><div class = center-text>7 Digits</p></div>","null","test_intro","","","","","","","","","","","","","","",""
"poldrack-multi-stim-multi-response","92","738445","0.0-18.0-1.0","2132","2","digit-span","true","0","","[-1]","","","stim","","[""<div class = centerbox><div class = digit-span-text>8</div></div>"",""<div class = centerbox><div class = digit-span-text>5</div></div>"",""<div class = centerbox><div class = digit-span-text>9</div></div>"",""<div class = centerbox><div class = digit-span-text>2</div></div>"",""<div class = centerbox><div class = digit-span-text>3</div></div>"",""<div class = centerbox><div class = digit-span-text>4</div></div>"",""<div class = centerbox><div class = digit-span-text>2</div></div>""]","[-1]","none","[1000,1000,1000,1000,1000,1000,1000]","8400","0","test","8,5,9,2,3,4,2","7","","","","",""
"single-stim-button","93","758557","0.0-18.0-2.0","2132","2","digit-span","true","0","","20110","","","response","","","","","","20110","1000","test","8,5,9,2,3,4,2","7","SubmitButton","20110","2,4,3,2,9,5,8","reverse","true"
"html-keyboard-response","94","759560","0.0-18.0-3.0","2132","2","digit-span","true","0","","null","<div class = centerbox><div class = center-text>7 Digits</p></div>","null","test_intro","","","","","","","","","","","","","","",""
"poldrack-multi-stim-multi-response","95","768968","0.0-18.0-4.0","2132","2","digit-span","true","0","","[-1]","","","stim","","[""<div class = centerbox><div class = digit-span-text>4</div></div>"",""<div class = centerbox><div class = digit-span-text>5</div></div>"",""<div class = centerbox><div class = digit-span-text>7</div></div>"",""<div class = centerbox><div class = digit-span-text>9</div></div>"",""<div class = centerbox><div class = digit-span-text>2</div></div>"",""<div class = centerbox><div class = digit-span-text>8</div></div>"",""<div class = centerbox><div class = digit-span-text>1</div></div>""]","[-1]","none","[1000,1000,1000,1000,1000,1000,1000]","8400","0","test","4,5,7,9,2,8,1","7","","","","",""
"single-stim-button","96","803997","0.0-18.0-5.0","2132","2","digit-span","true","0","","35026","","","response","","","","","","35026","1000","test","4,5,7,9,2,8,1","7","SubmitButton","35026","1,8,2,9,7,5,4","reverse","true"
"html-keyboard-response","97","805015","0.0-19.0-0.0","2132","2","digit-span","true","0","","null","<div class = centerbox><div class = center-text>8 Digits</p></div>","null","test_intro","","","","","","","","","","","","","","",""
"poldrack-multi-stim-multi-response","98","815626","0.0-19.0-1.0","2132","2","digit-span","true","0","","[-1]","","","stim","","[""<div class = centerbox><div class = digit-span-text>6</div></div>"",""<div class = centerbox><div class = digit-span-text>9</div></div>"",""<div class = centerbox><div class = digit-span-text>1</div></div>"",""<div class = centerbox><div class = digit-span-text>6</div></div>"",""<div class = centerbox><div class = digit-span-text>3</div></div>"",""<div class = centerbox><div class = digit-span-text>2</div></div>"",""<div class = centerbox><div class = digit-span-text>5</div></div>"",""<div class = centerbox><div class = digit-span-text>8</div></div>""]","[-1]","none","[1000,1000,1000,1000,1000,1000,1000,1000]","9600","0","test","6,9,1,6,3,2,5,8","8","","","","",""
"single-stim-button","99","832702","0.0-19.0-2.0","2132","2","digit-span","true","0","","17074","","","response","","","","","","17074","1000","test","6,9,1,6,3,2,5,8","8","SubmitButton","17074","8,5,2,3,6,1,9,6","reverse","true"
"html-keyboard-response","100","833710","0.0-19.0-3.0","2132","2","digit-span","true","0","","null","<div class = centerbox><div class = center-text>8 Digits</p></div>","null","test_intro","","","","","","","","","","","","","","",""
"poldrack-multi-stim-multi-response","101","844325","0.0-19.0-4.0","2132","2","digit-span","true","0","","[-1]","","","stim","","[""<div class = centerbox><div class = digit-span-text>3</div></div>"",""<div class = centerbox><div class = digit-span-text>1</div></div>"",""<div class = centerbox><div class = digit-span-text>7</div></div>"",""<div class = centerbox><div class = digit-span-text>9</div></div>"",""<div class = centerbox><div class = digit-span-text>5</div></div>"",""<div class = centerbox><div class = digit-span-text>4</div></div>"",""<div class = centerbox><div class = digit-span-text>8</div></div>"",""<div class = centerbox><div class = digit-span-text>2</div></div>""]","[-1]","none","[1000,1000,1000,1000,1000,1000,1000,1000]","9600","0","test","3,1,7,9,5,4,8,2","8","","","","",""
"single-stim-button","102","898020","0.0-19.0-5.0","2132","2","digit-span","true","0","","53693","","","response","","","","","","53693","1000","test","3,1,7,9,5,4,8,2","8","SubmitButton","53693","2,8,5,9,7,1,3","reverse","false"
"image-keyboard-response","103","900948","0.0-20.0","2132","2","digit-span","true","0","","2924.2000000476837","img/trophy2.jpeg","13","end","","","","","","","","","","","","","","",""
