"trial_type","trial_index","time_elapsed","internal_node_id","subject","exp_id","full_screen","focus_shifts","success","rt","stimulus","key_press","trial_id","view_history","stimuli","key_presses","possible_responses","stim_durations","block_duration","timing_post_trial","exp_stage","sequence","num_digits","mouse_click","stim_duration","response","condition","correct"
"pavlovia","0","2079","0.0-0.0","1111","digit-span","false","0","","","","","","","","","","","","","","","","","","","",""
"fullscreen","1","6319","0.0-1.0","1111","digit-span","true","0","true","","","","","","","","","","","","","","","","","","",""
"html-keyboard-response","2","21243","0.0-2.0-0.0","1111","digit-span","true","0","","14921.700000017881","<div class = centerbox><p class = center-block-text>Welcome to the number game! It will take less than 5 minutes. Press <strong>""Enter/Return""</strong> to begin.</p></div>","13","instruction","","","","","","","","","","","","","","",""
"instructions","3","27239","0.0-2.0-1.0","1111","digit-span","true","0","","5995.5","","","instruction","[{""page_index"":0,""viewing_time"":5995.199999988079}]","","","","","","","","","","","","","",""
"instructions","4","33993","0.0-2.0-2.0","1111","digit-span","true","0","","5752.5999999940395","","","instruction","[{""page_index"":0,""viewing_time"":5752.399999976158}]","","","","","","","","","","","","","",""
"html-keyboard-response","5","36003","0.0-3.0-0.0","1111","digit-span","true","0","","null","<div class = centerbox><div class = center-text>2 Digits</p></div>","null","test_intro","","","","","","","","","","","","","","",""
"poldrack-multi-stim-multi-response","6","39412","0.0-3.0-1.0","1111","digit-span","true","0","","[-1]","","","stim","","[""<div class = centerbox><div class = digit-span-text>2</div></div>"",""<div class = centerbox><div class = digit-span-text>9</div></div>""]","[-1]","none","[1000,1000]","2400","0","test","2,9","2","","","","",""
"single-stim-button","7","72842","0.0-3.0-2.0","1111","digit-span","true","0","","33428","","","response","","","","","","33428","1000","test","2,9","2","SubmitButton","33428","2,9","forward","true"
"html-keyboard-response","8","73847","0.0-3.0-3.0","1111","digit-span","true","0","","null","<div class = centerbox><div class = center-text>2 Digits</p></div>","null","test_intro","","","","","","","","","","","","","","",""
"poldrack-multi-stim-multi-response","9","77251","0.0-3.0-4.0","1111","digit-span","true","0","","[-1]","","","stim","","[""<div class = centerbox><div class = digit-span-text>4</div></div>"",""<div class = centerbox><div class = digit-span-text>6</div></div>""]","[-1]","none","[1000,1000]","2400","0","test","4,6","2","","","","",""
"single-stim-button","10","80417","0.0-3.0-5.0","1111","digit-span","true","0","","3165","","","response","","","","","","3165","1000","test","4,6","2","SubmitButton","3165","4,6","forward","true"
"html-keyboard-response","11","81423","0.0-4.0-0.0","1111","digit-span","true","0","","null","<div class = centerbox><div class = center-text>3 Digits</p></div>","null","test_intro","","","","","","","","","","","","","","",""
"poldrack-multi-stim-multi-response","12","86033","0.0-4.0-1.0","1111","digit-span","true","0","","[-1]","","","stim","","[""<div class = centerbox><div class = digit-span-text>3</div></div>"",""<div class = centerbox><div class = digit-span-text>8</div></div>"",""<div class = centerbox><div class = digit-span-text>6</div></div>""]","[-1]","none","[1000,1000,1000]","3600","0","test","3,8,6","3","","","","",""
"single-stim-button","13","90337","0.0-4.0-2.0","1111","digit-span","true","0","","4304","","","response","","","","","","4304","1000","test","3,8,6","3","SubmitButton","4304","3,8,6","forward","true"
"html-keyboard-response","14","91342","0.0-4.0-3.0","1111","digit-span","true","0","","null","<div class = centerbox><div class = center-text>3 Digits</p></div>","null","test_intro","","","","","","","","","","","","","","",""
"poldrack-multi-stim-multi-response","15","95952","0.0-4.0-4.0","1111","digit-span","true","0","","[-1]","","","stim","","[""<div class = centerbox><div class = digit-span-text>6</div></div>"",""<div class = centerbox><div class = digit-span-text>1</div></div>"",""<div class = centerbox><div class = digit-span-text>2</div></div>""]","[-1]","none","[1000,1000,1000]","3600","0","test","6,1,2","3","","","","",""
"single-stim-button","16","99854","0.0-4.0-5.0","1111","digit-span","true","0","","3901","","","response","","","","","","3901","1000","test","6,1,2","3","SubmitButton","3901","6,1,2","forward","true"
"html-keyboard-response","17","100859","0.0-5.0-0.0","1111","digit-span","true","0","","null","<div class = centerbox><div class = center-text>4 Digits</p></div>","null","test_intro","","","","","","","","","","","","","","",""
"poldrack-multi-stim-multi-response","18","106670","0.0-5.0-1.0","1111","digit-span","true","0","","[-1]","","","stim","","[""<div class = centerbox><div class = digit-span-text>3</div></div>"",""<div class = centerbox><div class = digit-span-text>4</div></div>"",""<div class = centerbox><div class = digit-span-text>1</div></div>"",""<div class = centerbox><div class = digit-span-text>7</div></div>""]","[-1]","none","[1000,1000,1000,1000]","4800","0","test","3,4,1,7","4","","","","",""
"single-stim-button","19","111606","0.0-5.0-2.0","1111","digit-span","true","0","","4935","","","response","","","","","","4935","1000","test","3,4,1,7","4","SubmitButton","4935","3,4,1,7","forward","true"
"html-keyboard-response","20","112612","0.0-5.0-3.0","1111","digit-span","true","0","","null","<div class = centerbox><div class = center-text>4 Digits</p></div>","null","test_intro","","","","","","","","","","","","","","",""
"poldrack-multi-stim-multi-response","21","118423","0.0-5.0-4.0","1111","digit-span","true","0","","[-1]","","","stim","","[""<div class = centerbox><div class = digit-span-text>6</div></div>"",""<div class = centerbox><div class = digit-span-text>1</div></div>"",""<div class = centerbox><div class = digit-span-text>5</div></div>"",""<div class = centerbox><div class = digit-span-text>8</div></div>""]","[-1]","none","[1000,1000,1000,1000]","4800","0","test","6,1,5,8","4","","","","",""
"single-stim-button","22","125247","0.0-5.0-5.0","1111","digit-span","true","0","","6822","","","response","","","","","","6822","1000","test","6,1,5,8","4","SubmitButton","6822","6,1,8,5","forward","false"
"html-keyboard-response","23","126251","0.0-6.0-0.0","1111","digit-span","true","0","","null","<div class = centerbox><div class = center-text>5 Digits</p></div>","null","test_intro","","","","","","","","","","","","","","",""
"poldrack-multi-stim-multi-response","24","133261","0.0-6.0-1.0","1111","digit-span","true","0","","[-1]","","","stim","","[""<div class = centerbox><div class = digit-span-text>8</div></div>"",""<div class = centerbox><div class = digit-span-text>4</div></div>"",""<div class = centerbox><div class = digit-span-text>2</div></div>"",""<div class = centerbox><div class = digit-span-text>3</div></div>"",""<div class = centerbox><div class = digit-span-text>9</div></div>""]","[-1]","none","[1000,1000,1000,1000,1000]","6000","0","test","8,4,2,3,9","5","","","","",""
"single-stim-button","25","140684","0.0-6.0-2.0","1111","digit-span","true","0","","7423","","","response","","","","","","7423","1000","test","8,4,2,3,9","5","SubmitButton","7423","8,4,2,3,9","forward","true"
"html-keyboard-response","26","141691","0.0-6.0-3.0","1111","digit-span","true","0","","null","<div class = centerbox><div class = center-text>5 Digits</p></div>","null","test_intro","","","","","","","","","","","","","","",""
"poldrack-multi-stim-multi-response","27","148697","0.0-6.0-4.0","1111","digit-span","true","0","","[-1]","","","stim","","[""<div class = centerbox><div class = digit-span-text>5</div></div>"",""<div class = centerbox><div class = digit-span-text>2</div></div>"",""<div class = centerbox><div class = digit-span-text>1</div></div>"",""<div class = centerbox><div class = digit-span-text>8</div></div>"",""<div class = centerbox><div class = digit-span-text>6</div></div>""]","[-1]","none","[1000,1000,1000,1000,1000]","6000","0","test","5,2,1,8,6","5","","","","",""
"single-stim-button","28","153693","0.0-6.0-5.0","1111","digit-span","true","0","","4996","","","response","","","","","","4996","1000","test","5,2,1,8,6","5","SubmitButton","4996","5,2,1,8,6","forward","true"
"html-keyboard-response","29","154695","0.0-7.0-0.0","1111","digit-span","true","0","","null","<div class = centerbox><div class = center-text>6 Digits</p></div>","null","test_intro","","","","","","","","","","","","","","",""
"poldrack-multi-stim-multi-response","30","162904","0.0-7.0-1.0","1111","digit-span","true","0","","[-1]","","","stim","","[""<div class = centerbox><div class = digit-span-text>3</div></div>"",""<div class = centerbox><div class = digit-span-text>8</div></div>"",""<div class = centerbox><div class = digit-span-text>9</div></div>"",""<div class = centerbox><div class = digit-span-text>1</div></div>"",""<div class = centerbox><div class = digit-span-text>7</div></div>"",""<div class = centerbox><div class = digit-span-text>4</div></div>""]","[-1]","none","[1000,1000,1000,1000,1000,1000]","7200","0","test","3,8,9,1,7,4","6","","","","",""
"single-stim-button","31","171708","0.0-7.0-2.0","1111","digit-span","true","0","","8803","","","response","","","","","","8803","1000","test","3,8,9,1,7,4","6","SubmitButton","8803","3,8,9,1,7,4","forward","true"
"html-keyboard-response","32","172714","0.0-7.0-3.0","1111","digit-span","true","0","","null","<div class = centerbox><div class = center-text>6 Digits</p></div>","null","test_intro","","","","","","","","","","","","","","",""
"poldrack-multi-stim-multi-response","33","180921","0.0-7.0-4.0","1111","digit-span","true","0","","[-1]","","","stim","","[""<div class = centerbox><div class = digit-span-text>7</div></div>"",""<div class = centerbox><div class = digit-span-text>9</div></div>"",""<div class = centerbox><div class = digit-span-text>6</div></div>"",""<div class = centerbox><div class = digit-span-text>4</div></div>"",""<div class = centerbox><div class = digit-span-text>8</div></div>"",""<div class = centerbox><div class = digit-span-text>3</div></div>""]","[-1]","none","[1000,1000,1000,1000,1000,1000]","7200","0","test","7,9,6,4,8,3","6","","","","",""
"single-stim-button","34","188389","0.0-7.0-5.0","1111","digit-span","true","0","","7467","","","response","","","","","","7467","1000","test","7,9,6,4,8,3","6","SubmitButton","7467","7,9,6,4,8,3","forward","true"
"html-keyboard-response","35","189394","0.0-8.0-0.0","1111","digit-span","true","0","","null","<div class = centerbox><div class = center-text>7 Digits</p></div>","null","test_intro","","","","","","","","","","","","","","",""
"poldrack-multi-stim-multi-response","36","198804","0.0-8.0-1.0","1111","digit-span","true","0","","[-1]","","","stim","","[""<div class = centerbox><div class = digit-span-text>5</div></div>"",""<div class = centerbox><div class = digit-span-text>1</div></div>"",""<div class = centerbox><div class = digit-span-text>7</div></div>"",""<div class = centerbox><div class = digit-span-text>4</div></div>"",""<div class = centerbox><div class = digit-span-text>2</div></div>"",""<div class = centerbox><div class = digit-span-text>3</div></div>"",""<div class = centerbox><div class = digit-span-text>8</div></div>""]","[-1]","none","[1000,1000,1000,1000,1000,1000,1000]","8400","0","test","5,1,7,4,2,3,8","7","","","","",""
"single-stim-button","37","208085","0.0-8.0-2.0","1111","digit-span","true","0","","9280","","","response","","","","","","9280","1000","test","5,1,7,4,2,3,8","7","SubmitButton","9280","5,1,7,4,2,3,8","forward","true"
"html-keyboard-response","38","209090","0.0-8.0-3.0","1111","digit-span","true","0","","null","<div class = centerbox><div class = center-text>7 Digits</p></div>","null","test_intro","","","","","","","","","","","","","","",""
"poldrack-multi-stim-multi-response","39","218497","0.0-8.0-4.0","1111","digit-span","true","0","","[-1]","","","stim","","[""<div class = centerbox><div class = digit-span-text>9</div></div>"",""<div class = centerbox><div class = digit-span-text>8</div></div>"",""<div class = centerbox><div class = digit-span-text>5</div></div>"",""<div class = centerbox><div class = digit-span-text>2</div></div>"",""<div class = centerbox><div class = digit-span-text>1</div></div>"",""<div class = centerbox><div class = digit-span-text>6</div></div>"",""<div class = centerbox><div class = digit-span-text>3</div></div>""]","[-1]","none","[1000,1000,1000,1000,1000,1000,1000]","8400","0","test","9,8,5,2,1,6,3","7","","","","",""
"single-stim-button","40","225921","0.0-8.0-5.0","1111","digit-span","true","0","","7422","","","response","","","","","","7422","1000","test","9,8,5,2,1,6,3","7","SubmitButton","7422","5,2,1,8,6,3","forward","false"
"html-keyboard-response","41","226924","0.0-9.0-0.0","1111","digit-span","true","0","","null","<div class = centerbox><div class = center-text>8 Digits</p></div>","null","test_intro","","","","","","","","","","","","","","",""
"poldrack-multi-stim-multi-response","42","237534","0.0-9.0-1.0","1111","digit-span","true","0","","[-1]","","","stim","","[""<div class = centerbox><div class = digit-span-text>1</div></div>"",""<div class = centerbox><div class = digit-span-text>6</div></div>"",""<div class = centerbox><div class = digit-span-text>4</div></div>"",""<div class = centerbox><div class = digit-span-text>5</div></div>"",""<div class = centerbox><div class = digit-span-text>9</div></div>"",""<div class = centerbox><div class = digit-span-text>7</div></div>"",""<div class = centerbox><div class = digit-span-text>6</div></div>"",""<div class = centerbox><div class = digit-span-text>3</div></div>""]","[-1]","none","[1000,1000,1000,1000,1000,1000,1000,1000]","9600","0","test","1,6,4,5,9,7,6,3","8","","","","",""
"single-stim-button","43","244948","0.0-9.0-2.0","1111","digit-span","true","0","","7413","","","response","","","","","","7413","1000","test","1,6,4,5,9,7,6,3","8","SubmitButton","7413","1,6,4,5,9,7,8,3","forward","false"
"html-keyboard-response","44","245951","0.0-9.0-3.0","1111","digit-span","true","0","","null","<div class = centerbox><div class = center-text>8 Digits</p></div>","null","test_intro","","","","","","","","","","","","","","",""
"poldrack-multi-stim-multi-response","45","256559","0.0-9.0-4.0","1111","digit-span","true","0","","[-1]","","","stim","","[""<div class = centerbox><div class = digit-span-text>2</div></div>"",""<div class = centerbox><div class = digit-span-text>9</div></div>"",""<div class = centerbox><div class = digit-span-text>7</div></div>"",""<div class = centerbox><div class = digit-span-text>6</div></div>"",""<div class = centerbox><div class = digit-span-text>3</div></div>"",""<div class = centerbox><div class = digit-span-text>1</div></div>"",""<div class = centerbox><div class = digit-span-text>5</div></div>"",""<div class = centerbox><div class = digit-span-text>4</div></div>""]","[-1]","none","[1000,1000,1000,1000,1000,1000,1000,1000]","9600","0","test","2,9,7,6,3,1,5,4","8","","","","",""
"single-stim-button","46","264890","0.0-9.0-5.0","1111","digit-span","true","0","","8329","","","response","","","","","","8329","1000","test","2,9,7,6,3,1,5,4","8","SubmitButton","8329","2,9,7,6,3,1,5,4","forward","true"
"html-keyboard-response","47","265894","0.0-10.0-0.0","1111","digit-span","true","0","","null","<div class = centerbox><div class = center-text>9 Digits</p></div>","null","test_intro","","","","","","","","","","","","","","",""
"poldrack-multi-stim-multi-response","48","277702","0.0-10.0-1.0","1111","digit-span","true","0","","[-1]","","","stim","","[""<div class = centerbox><div class = digit-span-text>5</div></div>"",""<div class = centerbox><div class = digit-span-text>3</div></div>"",""<div class = centerbox><div class = digit-span-text>8</div></div>"",""<div class = centerbox><div class = digit-span-text>7</div></div>"",""<div class = centerbox><div class = digit-span-text>1</div></div>"",""<div class = centerbox><div class = digit-span-text>2</div></div>"",""<div class = centerbox><div class = digit-span-text>4</div></div>"",""<div class = centerbox><div class = digit-span-text>6</div></div>"",""<div class = centerbox><div class = digit-span-text>9</div></div>""]","[-1]","none","[1000,1000,1000,1000,1000,1000,1000,1000,1000]","10800","0","test","5,3,8,7,1,2,4,6,9","9","","","","",""
"single-stim-button","49","285490","0.0-10.0-2.0","1111","digit-span","true","0","","7788","","","response","","","","","","7788","1000","test","5,3,8,7,1,2,4,6,9","9","SubmitButton","7788","5,3,8,7,1,2,4,6,9","forward","true"
"html-keyboard-response","50","286496","0.0-10.0-3.0","1111","digit-span","true","0","","null","<div class = centerbox><div class = center-text>9 Digits</p></div>","null","test_intro","","","","","","","","","","","","","","",""
"poldrack-multi-stim-multi-response","51","298303","0.0-10.0-4.0","1111","digit-span","true","0","","[-1]","","","stim","","[""<div class = centerbox><div class = digit-span-text>4</div></div>"",""<div class = centerbox><div class = digit-span-text>2</div></div>"",""<div class = centerbox><div class = digit-span-text>6</div></div>"",""<div class = centerbox><div class = digit-span-text>9</div></div>"",""<div class = centerbox><div class = digit-span-text>1</div></div>"",""<div class = centerbox><div class = digit-span-text>7</div></div>"",""<div class = centerbox><div class = digit-span-text>8</div></div>"",""<div class = centerbox><div class = digit-span-text>3</div></div>"",""<div class = centerbox><div class = digit-span-text>5</div></div>""]","[-1]","none","[1000,1000,1000,1000,1000,1000,1000,1000,1000]","10800","0","test","4,2,6,9,1,7,8,3,5","9","","","","",""
"single-stim-button","52","311119","0.0-10.0-5.0","1111","digit-span","true","0","","12814","","","response","","","","","","12814","1000","test","4,2,6,9,1,7,8,3,5","9","SubmitButton","12814","1,2,8,6,1,2,8,9,9","forward","false"
"html-keyboard-response","53","318720","0.0-11.0","1111","digit-span","true","0","","7600.5999999940395","<div class = centerbox><p class = block-text>Now, you will see some numbers, but this time you will enter them <strong>backward</strong>.<br><br>For example, you see <strong>“1—5”</strong>, and you will enter <strong>“5—1”</strong>.<br><br><br>Press <strong>""Enter/Return""</strong> to begin.</p></div>","13","start_reverse","","","","","","","","","","","","","","",""
"html-keyboard-response","54","319725","0.0-12.0-0.0","1111","digit-span","true","0","","null","<div class = centerbox><div class = center-text>2 Digits</p></div>","null","test_intro","","","","","","","","","","","","","","",""
"poldrack-multi-stim-multi-response","55","323132","0.0-12.0-1.0","1111","digit-span","true","0","","[-1]","","","stim","","[""<div class = centerbox><div class = digit-span-text>8</div></div>"",""<div class = centerbox><div class = digit-span-text>2</div></div>""]","[-1]","none","[1000,1000]","2400","0","test","8,2","2","","","","",""
"single-stim-button","56","325480","0.0-12.0-2.0","1111","digit-span","true","0","","2347","","","response","","","","","","2347","1000","test","8,2","2","SubmitButton","2347","2,8","practice","true"
"html-keyboard-response","57","335486","0.0-12.0-3.0","1111","digit-span","true","0","","null","<div class = centerbox><div class = center-block-text><span style=""color:green"">Correct!</span></div></div>","null","feedback","","","","","","","","","","","","","","",""
"html-keyboard-response","58","336491","0.0-12.0-4.0","1111","digit-span","true","0","","null","<div class = centerbox><div class = center-text>2 Digits</p></div>","null","test_intro","","","","","","","","","","","","","","",""
"poldrack-multi-stim-multi-response","59","339896","0.0-12.0-5.0","1111","digit-span","true","0","","[-1]","","","stim","","[""<div class = centerbox><div class = digit-span-text>5</div></div>"",""<div class = centerbox><div class = digit-span-text>6</div></div>""]","[-1]","none","[1000,1000]","2400","0","test","5,6","2","","","","",""
"single-stim-button","60","347727","0.0-12.0-6.0","1111","digit-span","true","0","","7830","","","response","","","","","","7830","1000","test","5,6","2","SubmitButton","7830","6,5","practice","true"
"html-keyboard-response","61","348728","0.0-13.0-0.0","1111","digit-span","true","0","","null","<div class = centerbox><div class = center-text>2 Digits</p></div>","null","test_intro","","","","","","","","","","","","","","",""
"poldrack-multi-stim-multi-response","62","352135","0.0-13.0-1.0","1111","digit-span","true","0","","[-1]","","","stim","","[""<div class = centerbox><div class = digit-span-text>2</div></div>"",""<div class = centerbox><div class = digit-span-text>5</div></div>""]","[-1]","none","[1000,1000]","2400","0","test","2,5","2","","","","",""
"single-stim-button","63","355026","0.0-13.0-2.0","1111","digit-span","true","0","","2890","","","response","","","","","","2890","1000","test","2,5","2","SubmitButton","2890","5,2","reverse","true"
"html-keyboard-response","64","356029","0.0-13.0-3.0","1111","digit-span","true","0","","null","<div class = centerbox><div class = center-text>2 Digits</p></div>","null","test_intro","","","","","","","","","","","","","","",""
"poldrack-multi-stim-multi-response","65","359438","0.0-13.0-4.0","1111","digit-span","true","0","","[-1]","","","stim","","[""<div class = centerbox><div class = digit-span-text>6</div></div>"",""<div class = centerbox><div class = digit-span-text>3</div></div>""]","[-1]","none","[1000,1000]","2400","0","test","6,3","2","","","","",""
"single-stim-button","66","361725","0.0-13.0-5.0","1111","digit-span","true","0","","2286","","","response","","","","","","2286","1000","test","6,3","2","SubmitButton","2286","6,3","reverse","false"
"html-keyboard-response","67","362730","0.0-14.0-0.0","1111","digit-span","true","0","","null","<div class = centerbox><div class = center-text>3 Digits</p></div>","null","test_intro","","","","","","","","","","","","","","",""
"poldrack-multi-stim-multi-response","68","367339","0.0-14.0-1.0","1111","digit-span","true","0","","[-1]","","","stim","","[""<div class = centerbox><div class = digit-span-text>5</div></div>"",""<div class = centerbox><div class = digit-span-text>7</div></div>"",""<div class = centerbox><div class = digit-span-text>4</div></div>""]","[-1]","none","[1000,1000,1000]","3600","0","test","5,7,4","3","","","","",""
"single-stim-button","69","372985","0.0-14.0-2.0","1111","digit-span","true","0","","5645","","","response","","","","","","5645","1000","test","5,7,4","3","SubmitButton","5645","4,7,5","reverse","true"
"html-keyboard-response","70","373989","0.0-14.0-3.0","1111","digit-span","true","0","","null","<div class = centerbox><div class = center-text>3 Digits</p></div>","null","test_intro","","","","","","","","","","","","","","",""
"poldrack-multi-stim-multi-response","71","378599","0.0-14.0-4.0","1111","digit-span","true","0","","[-1]","","","stim","","[""<div class = centerbox><div class = digit-span-text>2</div></div>"",""<div class = centerbox><div class = digit-span-text>5</div></div>"",""<div class = centerbox><div class = digit-span-text>9</div></div>""]","[-1]","none","[1000,1000,1000]","3600","0","test","2,5,9","3","","","","",""
"single-stim-button","72","382180","0.0-14.0-5.0","1111","digit-span","true","0","","3580","","","response","","","","","","3580","1000","test","2,5,9","3","SubmitButton","3580","9,5,2","reverse","true"
"html-keyboard-response","73","383185","0.0-15.0-0.0","1111","digit-span","true","0","","null","<div class = centerbox><div class = center-text>4 Digits</p></div>","null","test_intro","","","","","","","","","","","","","","",""
"poldrack-multi-stim-multi-response","74","388992","0.0-15.0-1.0","1111","digit-span","true","0","","[-1]","","","stim","","[""<div class = centerbox><div class = digit-span-text>7</div></div>"",""<div class = centerbox><div class = digit-span-text>2</div></div>"",""<div class = centerbox><div class = digit-span-text>9</div></div>"",""<div class = centerbox><div class = digit-span-text>6</div></div>""]","[-1]","none","[1000,1000,1000,1000]","4800","0","test","7,2,9,6","4","","","","",""
"single-stim-button","75","395386","0.0-15.0-2.0","1111","digit-span","true","0","","6393","","","response","","","","","","6393","1000","test","7,2,9,6","4","SubmitButton","6393","6,9,7,2","reverse","false"
"html-keyboard-response","76","396392","0.0-15.0-3.0","1111","digit-span","true","0","","null","<div class = centerbox><div class = center-text>4 Digits</p></div>","null","test_intro","","","","","","","","","","","","","","",""
"poldrack-multi-stim-multi-response","77","402199","0.0-15.0-4.0","1111","digit-span","true","0","","[-1]","","","stim","","[""<div class = centerbox><div class = digit-span-text>8</div></div>"",""<div class = centerbox><div class = digit-span-text>4</div></div>"",""<div class = centerbox><div class = digit-span-text>9</div></div>"",""<div class = centerbox><div class = digit-span-text>3</div></div>""]","[-1]","none","[1000,1000,1000,1000]","4800","0","test","8,4,9,3","4","","","","",""
"single-stim-button","78","410849","0.0-15.0-5.0","1111","digit-span","true","0","","8648","","","response","","","","","","8648","1000","test","8,4,9,3","4","SubmitButton","8648","3,9,4,8","reverse","true"
"html-keyboard-response","79","411853","0.0-16.0-0.0","1111","digit-span","true","0","","null","<div class = centerbox><div class = center-text>5 Digits</p></div>","null","test_intro","","","","","","","","","","","","","","",""
"poldrack-multi-stim-multi-response","80","418864","0.0-16.0-1.0","1111","digit-span","true","0","","[-1]","","","stim","","[""<div class = centerbox><div class = digit-span-text>4</div></div>"",""<div class = centerbox><div class = digit-span-text>1</div></div>"",""<div class = centerbox><div class = digit-span-text>3</div></div>"",""<div class = centerbox><div class = digit-span-text>5</div></div>"",""<div class = centerbox><div class = digit-span-text>7</div></div>""]","[-1]","none","[1000,1000,1000,1000,1000]","6000","0","test","4,1,3,5,7","5","","","","",""
"single-stim-button","81","448020","0.0-16.0-2.0","1111","digit-span","true","0","","29155","","","response","","","","","","29155","1000","test","4,1,3,5,7","5","SubmitButton","29155","7,5,3,1,4","reverse","true"
"html-keyboard-response","82","449022","0.0-16.0-3.0","1111","digit-span","true","0","","null","<div class = centerbox><div class = center-text>5 Digits</p></div>","null","test_intro","","","","","","","","","","","","","","",""
"poldrack-multi-stim-multi-response","83","456025","0.0-16.0-4.0","1111","digit-span","true","0","","[-1]","","","stim","","[""<div class = centerbox><div class = digit-span-text>9</div></div>"",""<div class = centerbox><div class = digit-span-text>7</div></div>"",""<div class = centerbox><div class = digit-span-text>8</div></div>"",""<div class = centerbox><div class = digit-span-text>5</div></div>"",""<div class = centerbox><div class = digit-span-text>2</div></div>""]","[-1]","none","[1000,1000,1000,1000,1000]","6000","0","test","9,7,8,5,2","5","","","","",""
"single-stim-button","84","473676","0.0-16.0-5.0","1111","digit-span","true","0","","17650","","","response","","","","","","17650","1000","test","9,7,8,5,2","5","SubmitButton","17650","2,5,8,7,9","reverse","true"
"html-keyboard-response","85","474680","0.0-17.0-0.0","1111","digit-span","true","0","","null","<div class = centerbox><div class = center-text>6 Digits</p></div>","null","test_intro","","","","","","","","","","","","","","",""
"poldrack-multi-stim-multi-response","86","482891","0.0-17.0-1.0","1111","digit-span","true","0","","[-1]","","","stim","","[""<div class = centerbox><div class = digit-span-text>1</div></div>"",""<div class = centerbox><div class = digit-span-text>6</div></div>"",""<div class = centerbox><div class = digit-span-text>5</div></div>"",""<div class = centerbox><div class = digit-span-text>2</div></div>"",""<div class = centerbox><div class = digit-span-text>9</div></div>"",""<div class = centerbox><div class = digit-span-text>8</div></div>""]","[-1]","none","[1000,1000,1000,1000,1000,1000]","7200","0","test","1,6,5,2,9,8","6","","","","",""
"single-stim-button","87","502267","0.0-17.0-2.0","1111","digit-span","true","0","","19376","","","response","","","","","","19376","1000","test","1,6,5,2,9,8","6","SubmitButton","19376","8,5,2,9,6,1","reverse","false"
"html-keyboard-response","88","503271","0.0-17.0-3.0","1111","digit-span","true","0","","null","<div class = centerbox><div class = center-text>6 Digits</p></div>","null","test_intro","","","","","","","","","","","","","","",""
"poldrack-multi-stim-multi-response","89","511475","0.0-17.0-4.0","1111","digit-span","true","0","","[-1]","","","stim","","[""<div class = centerbox><div class = digit-span-text>3</div></div>"",""<div class = centerbox><div class = digit-span-text>6</div></div>"",""<div class = centerbox><div class = digit-span-text>7</div></div>"",""<div class = centerbox><div class = digit-span-text>1</div></div>"",""<div class = centerbox><div class = digit-span-text>9</div></div>"",""<div class = centerbox><div class = digit-span-text>4</div></div>""]","[-1]","none","[1000,1000,1000,1000,1000,1000]","7200","0","test","3,6,7,1,9,4","6","","","","",""
"single-stim-button","90","530551","0.0-17.0-5.0","1111","digit-span","true","0","","19074","","","response","","","","","","19074","1000","test","3,6,7,1,9,4","6","SubmitButton","19074","9,4,1,7,6,3","reverse","false"
"image-keyboard-response","91","533147","0.0-20.0","1111","digit-span","true","0","","2594.5","img/trophy2.jpeg","13","end","","","","","","","","","","","","","","",""
