"trial_type","trial_index","time_elapsed","internal_node_id","subject","exp_id","full_screen","focus_shifts","success","rt","stimulus","key_press","trial_id","view_history","stimuli","key_presses","possible_responses","stim_durations","block_duration","timing_post_trial","exp_stage","sequence","num_digits","mouse_click","stim_duration","response","condition","correct"
"pavlovia","0","2049","0.0-0.0","1099","digit-span","true","0","","","","","","","","","","","","","","","","","","","",""
"fullscreen","1","5250","0.0-1.0","1099","digit-span","true","0","true","","","","","","","","","","","","","","","","","","",""
"html-keyboard-response","2","9735","0.0-2.0-0.0","1099","digit-span","true","0","","4481.700000047684","<div class = centerbox><p class = center-block-text>Welcome to the number game! It will take less than 5 minutes. Press <strong>""Enter/Return""</strong> to begin.</p></div>","13","instruction","","","","","","","","","","","","","","",""
"instructions","3","21943","0.0-2.0-1.0","1099","digit-span","true","0","","12207.5","","","instruction","[{""page_index"":0,""viewing_time"":12207.100000023842}]","","","","","","","","","","","","","",""
"instructions","4","27718","0.0-2.0-2.0","1099","digit-span","true","0","","4771.600000023842","","","instruction","[{""page_index"":0,""viewing_time"":4771.200000047684}]","","","","","","","","","","","","","",""
"html-keyboard-response","5","29730","0.0-3.0-0.0","1099","digit-span","true","0","","null","<div class = centerbox><div class = center-text>2 Digits</p></div>","null","test_intro","","","","","","","","","","","","","","",""
"poldrack-multi-stim-multi-response","6","33150","0.0-3.0-1.0","1099","digit-span","true","0","","[-1]","","","stim","","[""<div class = centerbox><div class = digit-span-text>2</div></div>"",""<div class = centerbox><div class = digit-span-text>9</div></div>""]","[-1]","none","[1000,1000]","2400","0","test","2,9","2","","","","",""
"single-stim-button","7","35732","0.0-3.0-2.0","1099","digit-span","true","0","","2579","","","response","","","","","","2579","1000","test","2,9","2","SubmitButton","2579","2,9","forward","true"
"html-keyboard-response","8","36737","0.0-3.0-3.0","1099","digit-span","true","0","","null","<div class = centerbox><div class = center-text>2 Digits</p></div>","null","test_intro","","","","","","","","","","","","","","",""
"poldrack-multi-stim-multi-response","9","40153","0.0-3.0-4.0","1099","digit-span","true","0","","[-1]","","","stim","","[""<div class = centerbox><div class = digit-span-text>4</div></div>"",""<div class = centerbox><div class = digit-span-text>6</div></div>""]","[-1]","none","[1000,1000]","2400","0","test","4,6","2","","","","",""
"single-stim-button","10","42228","0.0-3.0-5.0","1099","digit-span","true","0","","2073","","","response","","","","","","2073","1000","test","4,6","2","SubmitButton","2073","4,6","forward","true"
"html-keyboard-response","11","43234","0.0-4.0-0.0","1099","digit-span","true","0","","null","<div class = centerbox><div class = center-text>3 Digits</p></div>","null","test_intro","","","","","","","","","","","","","","",""
"poldrack-multi-stim-multi-response","12","47843","0.0-4.0-1.0","1099","digit-span","true","0","","[-1]","","","stim","","[""<div class = centerbox><div class = digit-span-text>3</div></div>"",""<div class = centerbox><div class = digit-span-text>8</div></div>"",""<div class = centerbox><div class = digit-span-text>6</div></div>""]","[-1]","none","[1000,1000,1000]","3600","0","test","3,8,6","3","","","","",""
"single-stim-button","13","50048","0.0-4.0-2.0","1099","digit-span","true","0","","2202","","","response","","","","","","2202","1000","test","3,8,6","3","SubmitButton","2202","3,8,6","forward","true"
"html-keyboard-response","14","51056","0.0-4.0-3.0","1099","digit-span","true","0","","null","<div class = centerbox><div class = center-text>3 Digits</p></div>","null","test_intro","","","","","","","","","","","","","","",""
"poldrack-multi-stim-multi-response","15","55667","0.0-4.0-4.0","1099","digit-span","true","0","","[-1]","","","stim","","[""<div class = centerbox><div class = digit-span-text>6</div></div>"",""<div class = centerbox><div class = digit-span-text>1</div></div>"",""<div class = centerbox><div class = digit-span-text>2</div></div>""]","[-1]","none","[1000,1000,1000]","3600","0","test","6,1,2","3","","","","",""
"single-stim-button","16","57670","0.0-4.0-5.0","1099","digit-span","true","0","","2001","","","response","","","","","","2001","1000","test","6,1,2","3","SubmitButton","2001","6,1,2","forward","true"
"html-keyboard-response","17","58680","0.0-5.0-0.0","1099","digit-span","true","0","","null","<div class = centerbox><div class = center-text>4 Digits</p></div>","null","test_intro","","","","","","","","","","","","","","",""
"poldrack-multi-stim-multi-response","18","64491","0.0-5.0-1.0","1099","digit-span","true","0","","[-1]","","","stim","","[""<div class = centerbox><div class = digit-span-text>3</div></div>"",""<div class = centerbox><div class = digit-span-text>4</div></div>"",""<div class = centerbox><div class = digit-span-text>1</div></div>"",""<div class = centerbox><div class = digit-span-text>7</div></div>""]","[-1]","none","[1000,1000,1000,1000]","4800","0","test","3,4,1,7","4","","","","",""
"single-stim-button","19","68500","0.0-5.0-2.0","1099","digit-span","true","0","","4007","","","response","","","","","","4007","1000","test","3,4,1,7","4","SubmitButton","4007","3,4,1,7","forward","true"
"html-keyboard-response","20","69505","0.0-5.0-3.0","1099","digit-span","true","0","","null","<div class = centerbox><div class = center-text>4 Digits</p></div>","null","test_intro","","","","","","","","","","","","","","",""
"poldrack-multi-stim-multi-response","21","75329","0.0-5.0-4.0","1099","digit-span","true","0","","[-1]","","","stim","","[""<div class = centerbox><div class = digit-span-text>6</div></div>"",""<div class = centerbox><div class = digit-span-text>1</div></div>"",""<div class = centerbox><div class = digit-span-text>5</div></div>"",""<div class = centerbox><div class = digit-span-text>8</div></div>""]","[-1]","none","[1000,1000,1000,1000]","4800","0","test","6,1,5,8","4","","","","",""
"single-stim-button","22","78157","0.0-5.0-5.0","1099","digit-span","true","0","","2824","","","response","","","","","","2824","1000","test","6,1,5,8","4","SubmitButton","2824","6,1,5,8","forward","true"
"html-keyboard-response","23","79167","0.0-6.0-0.0","1099","digit-span","true","0","","null","<div class = centerbox><div class = center-text>5 Digits</p></div>","null","test_intro","","","","","","","","","","","","","","",""
"poldrack-multi-stim-multi-response","24","86187","0.0-6.0-1.0","1099","digit-span","true","0","","[-1]","","","stim","","[""<div class = centerbox><div class = digit-span-text>8</div></div>"",""<div class = centerbox><div class = digit-span-text>4</div></div>"",""<div class = centerbox><div class = digit-span-text>2</div></div>"",""<div class = centerbox><div class = digit-span-text>3</div></div>"",""<div class = centerbox><div class = digit-span-text>9</div></div>""]","[-1]","none","[1000,1000,1000,1000,1000]","6000","0","test","8,4,2,3,9","5","","","","",""
"single-stim-button","25","89543","0.0-6.0-2.0","1099","digit-span","true","0","","3354","","","response","","","","","","3354","1000","test","8,4,2,3,9","5","SubmitButton","3354","8,4,2,3,9","forward","true"
"html-keyboard-response","26","90547","0.0-6.0-3.0","1099","digit-span","true","0","","null","<div class = centerbox><div class = center-text>5 Digits</p></div>","null","test_intro","","","","","","","","","","","","","","",""
"poldrack-multi-stim-multi-response","27","97569","0.0-6.0-4.0","1099","digit-span","true","0","","[-1]","","","stim","","[""<div class = centerbox><div class = digit-span-text>5</div></div>"",""<div class = centerbox><div class = digit-span-text>2</div></div>"",""<div class = centerbox><div class = digit-span-text>1</div></div>"",""<div class = centerbox><div class = digit-span-text>8</div></div>"",""<div class = centerbox><div class = digit-span-text>6</div></div>""]","[-1]","none","[1000,1000,1000,1000,1000]","6000","0","test","5,2,1,8,6","5","","","","",""
"single-stim-button","28","100294","0.0-6.0-5.0","1099","digit-span","true","0","","2722","","","response","","","","","","2722","1000","test","5,2,1,8,6","5","SubmitButton","2722","5,2,1,8,6","forward","true"
"html-keyboard-response","29","101301","0.0-7.0-0.0","1099","digit-span","true","0","","null","<div class = centerbox><div class = center-text>6 Digits</p></div>","null","test_intro","","","","","","","","","","","","","","",""
"poldrack-multi-stim-multi-response","30","109510","0.0-7.0-1.0","1099","digit-span","true","0","","[-1]","","","stim","","[""<div class = centerbox><div class = digit-span-text>3</div></div>"",""<div class = centerbox><div class = digit-span-text>8</div></div>"",""<div class = centerbox><div class = digit-span-text>9</div></div>"",""<div class = centerbox><div class = digit-span-text>1</div></div>"",""<div class = centerbox><div class = digit-span-text>7</div></div>"",""<div class = centerbox><div class = digit-span-text>4</div></div>""]","[-1]","none","[1000,1000,1000,1000,1000,1000]","7200","0","test","3,8,9,1,7,4","6","","","","",""
"single-stim-button","31","116539","0.0-7.0-2.0","1099","digit-span","true","0","","7028","","","response","","","","","","7028","1000","test","3,8,9,1,7,4","6","SubmitButton","7028","3,8,9,1,7,4","forward","true"
"html-keyboard-response","32","117546","0.0-7.0-3.0","1099","digit-span","true","0","","null","<div class = centerbox><div class = center-text>6 Digits</p></div>","null","test_intro","","","","","","","","","","","","","","",""
"poldrack-multi-stim-multi-response","33","125763","0.0-7.0-4.0","1099","digit-span","true","0","","[-1]","","","stim","","[""<div class = centerbox><div class = digit-span-text>7</div></div>"",""<div class = centerbox><div class = digit-span-text>9</div></div>"",""<div class = centerbox><div class = digit-span-text>6</div></div>"",""<div class = centerbox><div class = digit-span-text>4</div></div>"",""<div class = centerbox><div class = digit-span-text>8</div></div>"",""<div class = centerbox><div class = digit-span-text>3</div></div>""]","[-1]","none","[1000,1000,1000,1000,1000,1000]","7200","0","test","7,9,6,4,8,3","6","","","","",""
"single-stim-button","34","131435","0.0-7.0-5.0","1099","digit-span","true","0","","5670","","","response","","","","","","5670","1000","test","7,9,6,4,8,3","6","SubmitButton","5670","7,9,6,4,8,3","forward","true"
"html-keyboard-response","35","132445","0.0-8.0-0.0","1099","digit-span","true","0","","null","<div class = centerbox><div class = center-text>7 Digits</p></div>","null","test_intro","","","","","","","","","","","","","","",""
"poldrack-multi-stim-multi-response","36","141855","0.0-8.0-1.0","1099","digit-span","true","0","","[-1]","","","stim","","[""<div class = centerbox><div class = digit-span-text>5</div></div>"",""<div class = centerbox><div class = digit-span-text>1</div></div>"",""<div class = centerbox><div class = digit-span-text>7</div></div>"",""<div class = centerbox><div class = digit-span-text>4</div></div>"",""<div class = centerbox><div class = digit-span-text>2</div></div>"",""<div class = centerbox><div class = digit-span-text>3</div></div>"",""<div class = centerbox><div class = digit-span-text>8</div></div>""]","[-1]","none","[1000,1000,1000,1000,1000,1000,1000]","8400","0","test","5,1,7,4,2,3,8","7","","","","",""
"single-stim-button","37","148127","0.0-8.0-2.0","1099","digit-span","true","0","","6269","","","response","","","","","","6269","1000","test","5,1,7,4,2,3,8","7","SubmitButton","6269","5,1,7,4,3,2,8","forward","false"
"html-keyboard-response","38","149136","0.0-8.0-3.0","1099","digit-span","true","0","","null","<div class = centerbox><div class = center-text>7 Digits</p></div>","null","test_intro","","","","","","","","","","","","","","",""
"poldrack-multi-stim-multi-response","39","158547","0.0-8.0-4.0","1099","digit-span","true","0","","[-1]","","","stim","","[""<div class = centerbox><div class = digit-span-text>9</div></div>"",""<div class = centerbox><div class = digit-span-text>8</div></div>"",""<div class = centerbox><div class = digit-span-text>5</div></div>"",""<div class = centerbox><div class = digit-span-text>2</div></div>"",""<div class = centerbox><div class = digit-span-text>1</div></div>"",""<div class = centerbox><div class = digit-span-text>6</div></div>"",""<div class = centerbox><div class = digit-span-text>3</div></div>""]","[-1]","none","[1000,1000,1000,1000,1000,1000,1000]","8400","0","test","9,8,5,2,1,6,3","7","","","","",""
"single-stim-button","40","168680","0.0-8.0-5.0","1099","digit-span","true","0","","10131","","","response","","","","","","10131","1000","test","9,8,5,2,1,6,3","7","SubmitButton","10131","9,8,5,2,1,6,3","forward","true"
"html-keyboard-response","41","169685","0.0-9.0-0.0","1099","digit-span","true","0","","null","<div class = centerbox><div class = center-text>8 Digits</p></div>","null","test_intro","","","","","","","","","","","","","","",""
"poldrack-multi-stim-multi-response","42","180299","0.0-9.0-1.0","1099","digit-span","true","0","","[-1]","","","stim","","[""<div class = centerbox><div class = digit-span-text>1</div></div>"",""<div class = centerbox><div class = digit-span-text>6</div></div>"",""<div class = centerbox><div class = digit-span-text>4</div></div>"",""<div class = centerbox><div class = digit-span-text>5</div></div>"",""<div class = centerbox><div class = digit-span-text>9</div></div>"",""<div class = centerbox><div class = digit-span-text>7</div></div>"",""<div class = centerbox><div class = digit-span-text>6</div></div>"",""<div class = centerbox><div class = digit-span-text>3</div></div>""]","[-1]","none","[1000,1000,1000,1000,1000,1000,1000,1000]","9600","0","test","1,6,4,5,9,7,6,3","8","","","","",""
"single-stim-button","43","190871","0.0-9.0-2.0","1099","digit-span","true","0","","10570","","","response","","","","","","10570","1000","test","1,6,4,5,9,7,6,3","8","SubmitButton","10570","1,6,4,5,8,9,7,3","forward","false"
"html-keyboard-response","44","191879","0.0-9.0-3.0","1099","digit-span","true","0","","null","<div class = centerbox><div class = center-text>8 Digits</p></div>","null","test_intro","","","","","","","","","","","","","","",""
"poldrack-multi-stim-multi-response","45","202487","0.0-9.0-4.0","1099","digit-span","true","0","","[-1]","","","stim","","[""<div class = centerbox><div class = digit-span-text>2</div></div>"",""<div class = centerbox><div class = digit-span-text>9</div></div>"",""<div class = centerbox><div class = digit-span-text>7</div></div>"",""<div class = centerbox><div class = digit-span-text>6</div></div>"",""<div class = centerbox><div class = digit-span-text>3</div></div>"",""<div class = centerbox><div class = digit-span-text>1</div></div>"",""<div class = centerbox><div class = digit-span-text>5</div></div>"",""<div class = centerbox><div class = digit-span-text>4</div></div>""]","[-1]","none","[1000,1000,1000,1000,1000,1000,1000,1000]","9600","0","test","2,9,7,6,3,1,5,4","8","","","","",""
"single-stim-button","46","209622","0.0-9.0-5.0","1099","digit-span","true","0","","7133","","","response","","","","","","7133","1000","test","2,9,7,6,3,1,5,4","8","SubmitButton","7133","2,9,7,6,3,1,9,4","forward","false"
"html-keyboard-response","47","214780","0.0-11.0","1099","digit-span","true","0","","5156","<div class = centerbox><p class = block-text>Now, you will see some numbers, but this time you will enter them <strong>backward</strong>.<br><br>For example, you see <strong>“1—5”</strong>, and you will enter <strong>“5—1”</strong>.<br><br><br>Press <strong>""Enter/Return""</strong> to begin.</p></div>","13","start_reverse","","","","","","","","","","","","","","",""
"html-keyboard-response","48","215790","0.0-12.0-0.0","1099","digit-span","true","0","","null","<div class = centerbox><div class = center-text>2 Digits</p></div>","null","test_intro","","","","","","","","","","","","","","",""
"poldrack-multi-stim-multi-response","49","219205","0.0-12.0-1.0","1099","digit-span","true","0","","[-1]","","","stim","","[""<div class = centerbox><div class = digit-span-text>8</div></div>"",""<div class = centerbox><div class = digit-span-text>2</div></div>""]","[-1]","none","[1000,1000]","2400","0","test","8,2","2","","","","",""
"single-stim-button","50","220828","0.0-12.0-2.0","1099","digit-span","true","0","","1621","","","response","","","","","","1621","1000","test","8,2","2","SubmitButton","1621","2,8","practice","true"
"html-keyboard-response","51","230834","0.0-12.0-3.0","1099","digit-span","true","0","","null","<div class = centerbox><div class = center-block-text><span style=""color:green"">Correct!</span></div></div>","null","feedback","","","","","","","","","","","","","","",""
"html-keyboard-response","52","231847","0.0-12.0-4.0","1099","digit-span","true","0","","null","<div class = centerbox><div class = center-text>2 Digits</p></div>","null","test_intro","","","","","","","","","","","","","","",""
"poldrack-multi-stim-multi-response","53","235253","0.0-12.0-5.0","1099","digit-span","true","0","","[-1]","","","stim","","[""<div class = centerbox><div class = digit-span-text>5</div></div>"",""<div class = centerbox><div class = digit-span-text>6</div></div>""]","[-1]","none","[1000,1000]","2400","0","test","5,6","2","","","","",""
"single-stim-button","54","236964","0.0-12.0-6.0","1099","digit-span","true","0","","1710","","","response","","","","","","1710","1000","test","5,6","2","SubmitButton","1710","6,5","practice","true"
"html-keyboard-response","55","237966","0.0-13.0-0.0","1099","digit-span","true","0","","null","<div class = centerbox><div class = center-text>2 Digits</p></div>","null","test_intro","","","","","","","","","","","","","","",""
"poldrack-multi-stim-multi-response","56","241383","0.0-13.0-1.0","1099","digit-span","true","0","","[-1]","","","stim","","[""<div class = centerbox><div class = digit-span-text>2</div></div>"",""<div class = centerbox><div class = digit-span-text>5</div></div>""]","[-1]","none","[1000,1000]","2400","0","test","2,5","2","","","","",""
"single-stim-button","57","243201","0.0-13.0-2.0","1099","digit-span","true","0","","1817","","","response","","","","","","1817","1000","test","2,5","2","SubmitButton","1817","5,2","reverse","true"
"html-keyboard-response","58","244210","0.0-13.0-3.0","1099","digit-span","true","0","","null","<div class = centerbox><div class = center-text>2 Digits</p></div>","null","test_intro","","","","","","","","","","","","","","",""
"poldrack-multi-stim-multi-response","59","247616","0.0-13.0-4.0","1099","digit-span","true","0","","[-1]","","","stim","","[""<div class = centerbox><div class = digit-span-text>6</div></div>"",""<div class = centerbox><div class = digit-span-text>3</div></div>""]","[-1]","none","[1000,1000]","2400","0","test","6,3","2","","","","",""
"single-stim-button","60","249192","0.0-13.0-5.0","1099","digit-span","true","0","","1575","","","response","","","","","","1575","1000","test","6,3","2","SubmitButton","1575","3,6","reverse","true"
"html-keyboard-response","61","250194","0.0-14.0-0.0","1099","digit-span","true","0","","null","<div class = centerbox><div class = center-text>3 Digits</p></div>","null","test_intro","","","","","","","","","","","","","","",""
"poldrack-multi-stim-multi-response","62","254801","0.0-14.0-1.0","1099","digit-span","true","0","","[-1]","","","stim","","[""<div class = centerbox><div class = digit-span-text>5</div></div>"",""<div class = centerbox><div class = digit-span-text>7</div></div>"",""<div class = centerbox><div class = digit-span-text>4</div></div>""]","[-1]","none","[1000,1000,1000]","3600","0","test","5,7,4","3","","","","",""
"single-stim-button","63","257314","0.0-14.0-2.0","1099","digit-span","true","0","","2511","","","response","","","","","","2511","1000","test","5,7,4","3","SubmitButton","2511","4,7,5","reverse","true"
"html-keyboard-response","64","258325","0.0-14.0-3.0","1099","digit-span","true","0","","null","<div class = centerbox><div class = center-text>3 Digits</p></div>","null","test_intro","","","","","","","","","","","","","","",""
"poldrack-multi-stim-multi-response","65","262938","0.0-14.0-4.0","1099","digit-span","true","0","","[-1]","","","stim","","[""<div class = centerbox><div class = digit-span-text>2</div></div>"",""<div class = centerbox><div class = digit-span-text>5</div></div>"",""<div class = centerbox><div class = digit-span-text>9</div></div>""]","[-1]","none","[1000,1000,1000]","3600","0","test","2,5,9","3","","","","",""
"single-stim-button","66","265292","0.0-14.0-5.0","1099","digit-span","true","0","","2353","","","response","","","","","","2353","1000","test","2,5,9","3","SubmitButton","2353","9,5,2","reverse","true"
"html-keyboard-response","67","266300","0.0-15.0-0.0","1099","digit-span","true","0","","null","<div class = centerbox><div class = center-text>4 Digits</p></div>","null","test_intro","","","","","","","","","","","","","","",""
"poldrack-multi-stim-multi-response","68","272110","0.0-15.0-1.0","1099","digit-span","true","0","","[-1]","","","stim","","[""<div class = centerbox><div class = digit-span-text>7</div></div>"",""<div class = centerbox><div class = digit-span-text>2</div></div>"",""<div class = centerbox><div class = digit-span-text>9</div></div>"",""<div class = centerbox><div class = digit-span-text>6</div></div>""]","[-1]","none","[1000,1000,1000,1000]","4800","0","test","7,2,9,6","4","","","","",""
"single-stim-button","69","284811","0.0-15.0-2.0","1099","digit-span","true","0","","12699","","","response","","","","","","12699","1000","test","7,2,9,6","4","SubmitButton","12699","6,9,2,7","reverse","true"
"html-keyboard-response","70","285823","0.0-15.0-3.0","1099","digit-span","true","0","","null","<div class = centerbox><div class = center-text>4 Digits</p></div>","null","test_intro","","","","","","","","","","","","","","",""
"poldrack-multi-stim-multi-response","71","291628","0.0-15.0-4.0","1099","digit-span","true","0","","[-1]","","","stim","","[""<div class = centerbox><div class = digit-span-text>8</div></div>"",""<div class = centerbox><div class = digit-span-text>4</div></div>"",""<div class = centerbox><div class = digit-span-text>9</div></div>"",""<div class = centerbox><div class = digit-span-text>3</div></div>""]","[-1]","none","[1000,1000,1000,1000]","4800","0","test","8,4,9,3","4","","","","",""
"single-stim-button","72","296405","0.0-15.0-5.0","1099","digit-span","true","0","","4776","","","response","","","","","","4776","1000","test","8,4,9,3","4","SubmitButton","4776","3,9,4,8","reverse","true"
"html-keyboard-response","73","297408","0.0-16.0-0.0","1099","digit-span","true","0","","null","<div class = centerbox><div class = center-text>5 Digits</p></div>","null","test_intro","","","","","","","","","","","","","","",""
"poldrack-multi-stim-multi-response","74","304422","0.0-16.0-1.0","1099","digit-span","true","0","","[-1]","","","stim","","[""<div class = centerbox><div class = digit-span-text>4</div></div>"",""<div class = centerbox><div class = digit-span-text>1</div></div>"",""<div class = centerbox><div class = digit-span-text>3</div></div>"",""<div class = centerbox><div class = digit-span-text>5</div></div>"",""<div class = centerbox><div class = digit-span-text>7</div></div>""]","[-1]","none","[1000,1000,1000,1000,1000]","6000","0","test","4,1,3,5,7","5","","","","",""
"single-stim-button","75","308786","0.0-16.0-2.0","1099","digit-span","true","0","","4363","","","response","","","","","","4363","1000","test","4,1,3,5,7","5","SubmitButton","4363","7,5,3,1,4","reverse","true"
"html-keyboard-response","76","309789","0.0-16.0-3.0","1099","digit-span","true","0","","null","<div class = centerbox><div class = center-text>5 Digits</p></div>","null","test_intro","","","","","","","","","","","","","","",""
"poldrack-multi-stim-multi-response","77","316805","0.0-16.0-4.0","1099","digit-span","true","0","","[-1]","","","stim","","[""<div class = centerbox><div class = digit-span-text>9</div></div>"",""<div class = centerbox><div class = digit-span-text>7</div></div>"",""<div class = centerbox><div class = digit-span-text>8</div></div>"",""<div class = centerbox><div class = digit-span-text>5</div></div>"",""<div class = centerbox><div class = digit-span-text>2</div></div>""]","[-1]","none","[1000,1000,1000,1000,1000]","6000","0","test","9,7,8,5,2","5","","","","",""
"single-stim-button","78","327419","0.0-16.0-5.0","1099","digit-span","true","0","","10613","","","response","","","","","","10613","1000","test","9,7,8,5,2","5","SubmitButton","10613","2,5,8,7,9","reverse","true"
"html-keyboard-response","79","328427","0.0-17.0-0.0","1099","digit-span","true","0","","null","<div class = centerbox><div class = center-text>6 Digits</p></div>","null","test_intro","","","","","","","","","","","","","","",""
"poldrack-multi-stim-multi-response","80","336633","0.0-17.0-1.0","1099","digit-span","true","0","","[-1]","","","stim","","[""<div class = centerbox><div class = digit-span-text>1</div></div>"",""<div class = centerbox><div class = digit-span-text>6</div></div>"",""<div class = centerbox><div class = digit-span-text>5</div></div>"",""<div class = centerbox><div class = digit-span-text>2</div></div>"",""<div class = centerbox><div class = digit-span-text>9</div></div>"",""<div class = centerbox><div class = digit-span-text>8</div></div>""]","[-1]","none","[1000,1000,1000,1000,1000,1000]","7200","0","test","1,6,5,2,9,8","6","","","","",""
"single-stim-button","81","350793","0.0-17.0-2.0","1099","digit-span","true","0","","14158","","","response","","","","","","14158","1000","test","1,6,5,2,9,8","6","SubmitButton","14158","9,8,2,5,6,1","reverse","false"
"html-keyboard-response","82","351800","0.0-17.0-3.0","1099","digit-span","true","0","","null","<div class = centerbox><div class = center-text>6 Digits</p></div>","null","test_intro","","","","","","","","","","","","","","",""
"poldrack-multi-stim-multi-response","83","360006","0.0-17.0-4.0","1099","digit-span","true","0","","[-1]","","","stim","","[""<div class = centerbox><div class = digit-span-text>3</div></div>"",""<div class = centerbox><div class = digit-span-text>6</div></div>"",""<div class = centerbox><div class = digit-span-text>7</div></div>"",""<div class = centerbox><div class = digit-span-text>1</div></div>"",""<div class = centerbox><div class = digit-span-text>9</div></div>"",""<div class = centerbox><div class = digit-span-text>4</div></div>""]","[-1]","none","[1000,1000,1000,1000,1000,1000]","7200","0","test","3,6,7,1,9,4","6","","","","",""
"single-stim-button","84","373129","0.0-17.0-5.0","1099","digit-span","true","0","","13122","","","response","","","","","","13122","1000","test","3,6,7,1,9,4","6","SubmitButton","13122","4,9,1,7,6,3","reverse","true"
"html-keyboard-response","85","374136","0.0-18.0-0.0","1099","digit-span","true","0","","null","<div class = centerbox><div class = center-text>7 Digits</p></div>","null","test_intro","","","","","","","","","","","","","","",""
"poldrack-multi-stim-multi-response","86","383546","0.0-18.0-1.0","1099","digit-span","true","0","","[-1]","","","stim","","[""<div class = centerbox><div class = digit-span-text>8</div></div>"",""<div class = centerbox><div class = digit-span-text>5</div></div>"",""<div class = centerbox><div class = digit-span-text>9</div></div>"",""<div class = centerbox><div class = digit-span-text>2</div></div>"",""<div class = centerbox><div class = digit-span-text>3</div></div>"",""<div class = centerbox><div class = digit-span-text>4</div></div>"",""<div class = centerbox><div class = digit-span-text>2</div></div>""]","[-1]","none","[1000,1000,1000,1000,1000,1000,1000]","8400","0","test","8,5,9,2,3,4,2","7","","","","",""
"single-stim-button","87","392898","0.0-18.0-2.0","1099","digit-span","true","0","","9350","","","response","","","","","","9350","1000","test","8,5,9,2,3,4,2","7","SubmitButton","9350","2,4,3,7,6,8,9","reverse","false"
"html-keyboard-response","88","393907","0.0-18.0-3.0","1099","digit-span","true","0","","null","<div class = centerbox><div class = center-text>7 Digits</p></div>","null","test_intro","","","","","","","","","","","","","","",""
"poldrack-multi-stim-multi-response","89","403328","0.0-18.0-4.0","1099","digit-span","true","0","","[-1]","","","stim","","[""<div class = centerbox><div class = digit-span-text>4</div></div>"",""<div class = centerbox><div class = digit-span-text>5</div></div>"",""<div class = centerbox><div class = digit-span-text>7</div></div>"",""<div class = centerbox><div class = digit-span-text>9</div></div>"",""<div class = centerbox><div class = digit-span-text>2</div></div>"",""<div class = centerbox><div class = digit-span-text>8</div></div>"",""<div class = centerbox><div class = digit-span-text>1</div></div>""]","[-1]","none","[1000,1000,1000,1000,1000,1000,1000]","8400","0","test","4,5,7,9,2,8,1","7","","","","",""
"single-stim-button","90","412677","0.0-18.0-5.0","1099","digit-span","true","0","","9348","","","response","","","","","","9348","1000","test","4,5,7,9,2,8,1","7","SubmitButton","9348","1,8,2,5,4,7","reverse","false"
"image-keyboard-response","91","419409","0.0-20.0","1099","digit-span","true","0","","6730.100000023842","img/trophy2.jpeg","13","end","","","","","","","","","","","","","","",""
