"trial_type","trial_index","time_elapsed","internal_node_id","subject","order","exp_id","full_screen","focus_shifts","success","rt","stimulus","key_press","trial_id","view_history","stimuli","key_presses","possible_responses","stim_durations","block_duration","timing_post_trial","exp_stage","sequence","num_digits","mouse_click","stim_duration","response","condition","correct"
"pavlovia","0","2920","0.0-0.0","2141","1","digit-span","true","0","","","","","","","","","","","","","","","","","","","",""
"fullscreen","1","6553","0.0-1.0","2141","1","digit-span","true","0","true","","","","","","","","","","","","","","","","","","",""
"html-keyboard-response","2","19935","0.0-2.0-0.0","2141","1","digit-span","true","0","","13380.5","<div class = centerbox><p class = center-block-text>Welcome to the number game! It will take less than 5 minutes. Press <strong>""Enter/Return""</strong> to begin.</p></div>","13","instruction","","","","","","","","","","","","","","",""
"instructions","3","25370","0.0-2.0-1.0","2141","1","digit-span","true","0","","5434.10000000149","","","instruction","[{""page_index"":0,""viewing_time"":5433.60000000149}]","","","","","","","","","","","","","",""
"instructions","4","29044","0.0-2.0-2.0","2141","1","digit-span","true","0","","2660.7000000029802","","","instruction","[{""page_index"":0,""viewing_time"":2660.39999999851}]","","","","","","","","","","","","","",""
"html-keyboard-response","5","31083","0.0-3.0-0.0","2141","1","digit-span","true","0","","null","<div class = centerbox><div class = center-text>2 Digits</p></div>","null","test_intro","","","","","","","","","","","","","","",""
"poldrack-multi-stim-multi-response","6","34541","0.0-3.0-1.0","2141","1","digit-span","true","0","","[-1]","","","stim","","[""<div class = centerbox><div class = digit-span-text>2</div></div>"",""<div class = centerbox><div class = digit-span-text>9</div></div>""]","[-1]","none","[1000,1000]","2400","0","test","2,9","2","","","","",""
"single-stim-button","7","41935","0.0-3.0-2.0","2141","1","digit-span","true","0","","7392","","","response","","","","","","7392","1000","test","2,9","2","SubmitButton","7392","2,9","forward","true"
"html-keyboard-response","8","42939","0.0-3.0-3.0","2141","1","digit-span","true","0","","null","<div class = centerbox><div class = center-text>2 Digits</p></div>","null","test_intro","","","","","","","","","","","","","","",""
"poldrack-multi-stim-multi-response","9","46343","0.0-3.0-4.0","2141","1","digit-span","true","0","","[-1]","","","stim","","[""<div class = centerbox><div class = digit-span-text>4</div></div>"",""<div class = centerbox><div class = digit-span-text>6</div></div>""]","[-1]","none","[1000,1000]","2400","0","test","4,6","2","","","","",""
"single-stim-button","10","56500","0.0-3.0-5.0","2141","1","digit-span","true","0","","10156","","","response","","","","","","10156","1000","test","4,6","2","SubmitButton","10156","4,6","forward","true"
"html-keyboard-response","11","57507","0.0-4.0-0.0","2141","1","digit-span","true","0","","null","<div class = centerbox><div class = center-text>3 Digits</p></div>","null","test_intro","","","","","","","","","","","","","","",""
"poldrack-multi-stim-multi-response","12","62175","0.0-4.0-1.0","2141","1","digit-span","true","0","","[-1]","","","stim","","[""<div class = centerbox><div class = digit-span-text>3</div></div>"",""<div class = centerbox><div class = digit-span-text>8</div></div>"",""<div class = centerbox><div class = digit-span-text>6</div></div>""]","[-1]","none","[1000,1000,1000]","3600","0","test","3,8,6","3","","","","",""
"single-stim-button","13","66691","0.0-4.0-2.0","2141","1","digit-span","true","0","","4515","","","response","","","","","","4515","1000","test","3,8,6","3","SubmitButton","4515","3,8,6","forward","true"
"html-keyboard-response","14","67706","0.0-4.0-3.0","2141","1","digit-span","true","0","","null","<div class = centerbox><div class = center-text>3 Digits</p></div>","null","test_intro","","","","","","","","","","","","","","",""
"poldrack-multi-stim-multi-response","15","72384","0.0-4.0-4.0","2141","1","digit-span","true","0","","[-1]","","","stim","","[""<div class = centerbox><div class = digit-span-text>6</div></div>"",""<div class = centerbox><div class = digit-span-text>1</div></div>"",""<div class = centerbox><div class = digit-span-text>2</div></div>""]","[-1]","none","[1000,1000,1000]","3600","0","test","6,1,2","3","","","","",""
"single-stim-button","16","77464","0.0-4.0-5.0","2141","1","digit-span","true","0","","5079","","","response","","","","","","5079","1000","test","6,1,2","3","SubmitButton","5079","6,1,2","forward","true"
"html-keyboard-response","17","78473","0.0-5.0-0.0","2141","1","digit-span","true","0","","null","<div class = centerbox><div class = center-text>4 Digits</p></div>","null","test_intro","","","","","","","","","","","","","","",""
"poldrack-multi-stim-multi-response","18","84334","0.0-5.0-1.0","2141","1","digit-span","true","0","","[-1]","","","stim","","[""<div class = centerbox><div class = digit-span-text>3</div></div>"",""<div class = centerbox><div class = digit-span-text>4</div></div>"",""<div class = centerbox><div class = digit-span-text>1</div></div>"",""<div class = centerbox><div class = digit-span-text>7</div></div>""]","[-1]","none","[1000,1000,1000,1000]","4800","0","test","3,4,1,7","4","","","","",""
"single-stim-button","19","89151","0.0-5.0-2.0","2141","1","digit-span","true","0","","4816","","","response","","","","","","4816","1000","test","3,4,1,7","4","SubmitButton","4816","3,4,1,7","forward","true"
"html-keyboard-response","20","90156","0.0-5.0-3.0","2141","1","digit-span","true","0","","null","<div class = centerbox><div class = center-text>4 Digits</p></div>","null","test_intro","","","","","","","","","","","","","","",""
"poldrack-multi-stim-multi-response","21","96003","0.0-5.0-4.0","2141","1","digit-span","true","0","","[-1]","","","stim","","[""<div class = centerbox><div class = digit-span-text>6</div></div>"",""<div class = centerbox><div class = digit-span-text>1</div></div>"",""<div class = centerbox><div class = digit-span-text>5</div></div>"",""<div class = centerbox><div class = digit-span-text>8</div></div>""]","[-1]","none","[1000,1000,1000,1000]","4800","0","test","6,1,5,8","4","","","","",""
"single-stim-button","22","99964","0.0-5.0-5.0","2141","1","digit-span","true","0","","3959","","","response","","","","","","3959","1000","test","6,1,5,8","4","SubmitButton","3959","6,1,5,8","forward","true"
"html-keyboard-response","23","100967","0.0-6.0-0.0","2141","1","digit-span","true","0","","null","<div class = centerbox><div class = center-text>5 Digits</p></div>","null","test_intro","","","","","","","","","","","","","","",""
"poldrack-multi-stim-multi-response","24","108003","0.0-6.0-1.0","2141","1","digit-span","true","0","","[-1]","","","stim","","[""<div class = centerbox><div class = digit-span-text>8</div></div>"",""<div class = centerbox><div class = digit-span-text>4</div></div>"",""<div class = centerbox><div class = digit-span-text>2</div></div>"",""<div class = centerbox><div class = digit-span-text>3</div></div>"",""<div class = centerbox><div class = digit-span-text>9</div></div>""]","[-1]","none","[1000,1000,1000,1000,1000]","6000","0","test","8,4,2,3,9","5","","","","",""
"single-stim-button","25","114445","0.0-6.0-2.0","2141","1","digit-span","true","0","","6440","","","response","","","","","","6440","1000","test","8,4,2,3,9","5","SubmitButton","6440","8,4,2,3,9","forward","true"
"html-keyboard-response","26","115479","0.0-6.0-3.0","2141","1","digit-span","true","0","","null","<div class = centerbox><div class = center-text>5 Digits</p></div>","null","test_intro","","","","","","","","","","","","","","",""
"poldrack-multi-stim-multi-response","27","122524","0.0-6.0-4.0","2141","1","digit-span","true","0","","[-1]","","","stim","","[""<div class = centerbox><div class = digit-span-text>5</div></div>"",""<div class = centerbox><div class = digit-span-text>2</div></div>"",""<div class = centerbox><div class = digit-span-text>1</div></div>"",""<div class = centerbox><div class = digit-span-text>8</div></div>"",""<div class = centerbox><div class = digit-span-text>6</div></div>""]","[-1]","none","[1000,1000,1000,1000,1000]","6000","0","test","5,2,1,8,6","5","","","","",""
"single-stim-button","28","127699","0.0-6.0-5.0","2141","1","digit-span","true","0","","5175","","","response","","","","","","5175","1000","test","5,2,1,8,6","5","SubmitButton","5175","5,2,1,8,6","forward","true"
"html-keyboard-response","29","128734","0.0-7.0-0.0","2141","1","digit-span","true","0","","null","<div class = centerbox><div class = center-text>6 Digits</p></div>","null","test_intro","","","","","","","","","","","","","","",""
"poldrack-multi-stim-multi-response","30","136999","0.0-7.0-1.0","2141","1","digit-span","true","0","","[-1]","","","stim","","[""<div class = centerbox><div class = digit-span-text>3</div></div>"",""<div class = centerbox><div class = digit-span-text>8</div></div>"",""<div class = centerbox><div class = digit-span-text>9</div></div>"",""<div class = centerbox><div class = digit-span-text>1</div></div>"",""<div class = centerbox><div class = digit-span-text>7</div></div>"",""<div class = centerbox><div class = digit-span-text>4</div></div>""]","[-1]","none","[1000,1000,1000,1000,1000,1000]","7200","0","test","3,8,9,1,7,4","6","","","","",""
"single-stim-button","31","144436","0.0-7.0-2.0","2141","1","digit-span","true","0","","7435","","","response","","","","","","7435","1000","test","3,8,9,1,7,4","6","SubmitButton","7435","3,8,9,1,7,4","forward","true"
"html-keyboard-response","32","145438","0.0-7.0-3.0","2141","1","digit-span","true","0","","null","<div class = centerbox><div class = center-text>6 Digits</p></div>","null","test_intro","","","","","","","","","","","","","","",""
"poldrack-multi-stim-multi-response","33","153665","0.0-7.0-4.0","2141","1","digit-span","true","0","","[-1]","","","stim","","[""<div class = centerbox><div class = digit-span-text>7</div></div>"",""<div class = centerbox><div class = digit-span-text>9</div></div>"",""<div class = centerbox><div class = digit-span-text>6</div></div>"",""<div class = centerbox><div class = digit-span-text>4</div></div>"",""<div class = centerbox><div class = digit-span-text>8</div></div>"",""<div class = centerbox><div class = digit-span-text>3</div></div>""]","[-1]","none","[1000,1000,1000,1000,1000,1000]","7200","0","test","7,9,6,4,8,3","6","","","","",""
"single-stim-button","34","160914","0.0-7.0-5.0","2141","1","digit-span","true","0","","7247","","","response","","","","","","7247","1000","test","7,9,6,4,8,3","6","SubmitButton","7247","7,6,9,4,2,3","forward","false"
"html-keyboard-response","35","161917","0.0-8.0-0.0","2141","1","digit-span","true","0","","null","<div class = centerbox><div class = center-text>7 Digits</p></div>","null","test_intro","","","","","","","","","","","","","","",""
"poldrack-multi-stim-multi-response","36","171334","0.0-8.0-1.0","2141","1","digit-span","true","0","","[-1]","","","stim","","[""<div class = centerbox><div class = digit-span-text>5</div></div>"",""<div class = centerbox><div class = digit-span-text>1</div></div>"",""<div class = centerbox><div class = digit-span-text>7</div></div>"",""<div class = centerbox><div class = digit-span-text>4</div></div>"",""<div class = centerbox><div class = digit-span-text>2</div></div>"",""<div class = centerbox><div class = digit-span-text>3</div></div>"",""<div class = centerbox><div class = digit-span-text>8</div></div>""]","[-1]","none","[1000,1000,1000,1000,1000,1000,1000]","8400","0","test","5,1,7,4,2,3,8","7","","","","",""
"single-stim-button","37","190815","0.0-8.0-2.0","2141","1","digit-span","true","0","","19479","","","response","","","","","","19479","1000","test","5,1,7,4,2,3,8","7","SubmitButton","19479","5,4,3,2,7,1,3","forward","false"
"html-keyboard-response","38","191821","0.0-8.0-3.0","2141","1","digit-span","true","0","","null","<div class = centerbox><div class = center-text>7 Digits</p></div>","null","test_intro","","","","","","","","","","","","","","",""
"poldrack-multi-stim-multi-response","39","201248","0.0-8.0-4.0","2141","1","digit-span","true","0","","[-1]","","","stim","","[""<div class = centerbox><div class = digit-span-text>9</div></div>"",""<div class = centerbox><div class = digit-span-text>8</div></div>"",""<div class = centerbox><div class = digit-span-text>5</div></div>"",""<div class = centerbox><div class = digit-span-text>2</div></div>"",""<div class = centerbox><div class = digit-span-text>1</div></div>"",""<div class = centerbox><div class = digit-span-text>6</div></div>"",""<div class = centerbox><div class = digit-span-text>3</div></div>""]","[-1]","none","[1000,1000,1000,1000,1000,1000,1000]","8400","0","test","9,8,5,2,1,6,3","7","","","","",""
"single-stim-button","40","219279","0.0-8.0-5.0","2141","1","digit-span","true","0","","18028","","","response","","","","","","18028","1000","test","9,8,5,2,1,6,3","7","SubmitButton","18028","9,8,5,2,1,3,6","forward","false"
"html-keyboard-response","41","227316","0.0-11.0","2141","1","digit-span","true","0","","8035.20000000298","<div class = centerbox><p class = block-text>Now, you will see some numbers, but this time you will enter them <strong>backward</strong>.<br><br>For example, you see <strong>“1—5”</strong>, and you will enter <strong>“5—1”</strong>.<br><br><br>Press <strong>""Enter/Return""</strong> to begin.</p></div>","13","start_reverse","","","","","","","","","","","","","","",""
"html-keyboard-response","42","228324","0.0-12.0-0.0","2141","1","digit-span","true","0","","null","<div class = centerbox><div class = center-text>2 Digits</p></div>","null","test_intro","","","","","","","","","","","","","","",""
"poldrack-multi-stim-multi-response","43","231741","0.0-12.0-1.0","2141","1","digit-span","true","0","","[-1]","","","stim","","[""<div class = centerbox><div class = digit-span-text>8</div></div>"",""<div class = centerbox><div class = digit-span-text>2</div></div>""]","[-1]","none","[1000,1000]","2400","0","test","8,2","2","","","","",""
"single-stim-button","44","235024","0.0-12.0-2.0","2141","1","digit-span","true","0","","3281","","","response","","","","","","3281","1000","test","8,2","2","SubmitButton","3281","2,8","practice","true"
"html-keyboard-response","45","245046","0.0-12.0-3.0","2141","1","digit-span","true","0","","null","<div class = centerbox><div class = center-block-text><span style=""color:green"">Correct!</span></div></div>","null","feedback","","","","","","","","","","","","","","",""
"html-keyboard-response","46","246048","0.0-12.0-4.0","2141","1","digit-span","true","0","","null","<div class = centerbox><div class = center-text>2 Digits</p></div>","null","test_intro","","","","","","","","","","","","","","",""
"poldrack-multi-stim-multi-response","47","249458","0.0-12.0-5.0","2141","1","digit-span","true","0","","[-1]","","","stim","","[""<div class = centerbox><div class = digit-span-text>5</div></div>"",""<div class = centerbox><div class = digit-span-text>6</div></div>""]","[-1]","none","[1000,1000]","2400","0","test","5,6","2","","","","",""
"single-stim-button","48","251746","0.0-12.0-6.0","2141","1","digit-span","true","0","","2287","","","response","","","","","","2287","1000","test","5,6","2","SubmitButton","2287","6,5","practice","true"
"html-keyboard-response","49","252752","0.0-13.0-0.0","2141","1","digit-span","true","0","","null","<div class = centerbox><div class = center-text>2 Digits</p></div>","null","test_intro","","","","","","","","","","","","","","",""
"poldrack-multi-stim-multi-response","50","256186","0.0-13.0-1.0","2141","1","digit-span","true","0","","[-1]","","","stim","","[""<div class = centerbox><div class = digit-span-text>2</div></div>"",""<div class = centerbox><div class = digit-span-text>5</div></div>""]","[-1]","none","[1000,1000]","2400","0","test","2,5","2","","","","",""
"single-stim-button","51","258677","0.0-13.0-2.0","2141","1","digit-span","true","0","","2491","","","response","","","","","","2491","1000","test","2,5","2","SubmitButton","2491","5,2","reverse","true"
"html-keyboard-response","52","259695","0.0-13.0-3.0","2141","1","digit-span","true","0","","null","<div class = centerbox><div class = center-text>2 Digits</p></div>","null","test_intro","","","","","","","","","","","","","","",""
"poldrack-multi-stim-multi-response","53","263110","0.0-13.0-4.0","2141","1","digit-span","true","0","","[-1]","","","stim","","[""<div class = centerbox><div class = digit-span-text>6</div></div>"",""<div class = centerbox><div class = digit-span-text>3</div></div>""]","[-1]","none","[1000,1000]","2400","0","test","6,3","2","","","","",""
"single-stim-button","54","266304","0.0-13.0-5.0","2141","1","digit-span","true","0","","3193","","","response","","","","","","3193","1000","test","6,3","2","SubmitButton","3193","3,6","reverse","true"
"html-keyboard-response","55","267306","0.0-14.0-0.0","2141","1","digit-span","true","0","","null","<div class = centerbox><div class = center-text>3 Digits</p></div>","null","test_intro","","","","","","","","","","","","","","",""
"poldrack-multi-stim-multi-response","56","271973","0.0-14.0-1.0","2141","1","digit-span","true","0","","[-1]","","","stim","","[""<div class = centerbox><div class = digit-span-text>5</div></div>"",""<div class = centerbox><div class = digit-span-text>7</div></div>"",""<div class = centerbox><div class = digit-span-text>4</div></div>""]","[-1]","none","[1000,1000,1000]","3600","0","test","5,7,4","3","","","","",""
"single-stim-button","57","276881","0.0-14.0-2.0","2141","1","digit-span","true","0","","4906","","","response","","","","","","4906","1000","test","5,7,4","3","SubmitButton","4906","4,7,5","reverse","true"
"html-keyboard-response","58","277887","0.0-14.0-3.0","2141","1","digit-span","true","0","","null","<div class = centerbox><div class = center-text>3 Digits</p></div>","null","test_intro","","","","","","","","","","","","","","",""
"poldrack-multi-stim-multi-response","59","282514","0.0-14.0-4.0","2141","1","digit-span","true","0","","[-1]","","","stim","","[""<div class = centerbox><div class = digit-span-text>2</div></div>"",""<div class = centerbox><div class = digit-span-text>5</div></div>"",""<div class = centerbox><div class = digit-span-text>9</div></div>""]","[-1]","none","[1000,1000,1000]","3600","0","test","2,5,9","3","","","","",""
"single-stim-button","60","288591","0.0-14.0-5.0","2141","1","digit-span","true","0","","6075","","","response","","","","","","6075","1000","test","2,5,9","3","SubmitButton","6075","9,5,2","reverse","true"
"html-keyboard-response","61","289605","0.0-15.0-0.0","2141","1","digit-span","true","0","","null","<div class = centerbox><div class = center-text>4 Digits</p></div>","null","test_intro","","","","","","","","","","","","","","",""
"poldrack-multi-stim-multi-response","62","295461","0.0-15.0-1.0","2141","1","digit-span","true","0","","[-1]","","","stim","","[""<div class = centerbox><div class = digit-span-text>7</div></div>"",""<div class = centerbox><div class = digit-span-text>2</div></div>"",""<div class = centerbox><div class = digit-span-text>9</div></div>"",""<div class = centerbox><div class = digit-span-text>6</div></div>""]","[-1]","none","[1000,1000,1000,1000]","4800","0","test","7,2,9,6","4","","","","",""
"single-stim-button","63","302402","0.0-15.0-2.0","2141","1","digit-span","true","0","","6940","","","response","","","","","","6940","1000","test","7,2,9,6","4","SubmitButton","6940","6,9,2,7","reverse","true"
"html-keyboard-response","64","303406","0.0-15.0-3.0","2141","1","digit-span","true","0","","null","<div class = centerbox><div class = center-text>4 Digits</p></div>","null","test_intro","","","","","","","","","","","","","","",""
"poldrack-multi-stim-multi-response","65","309251","0.0-15.0-4.0","2141","1","digit-span","true","0","","[-1]","","","stim","","[""<div class = centerbox><div class = digit-span-text>8</div></div>"",""<div class = centerbox><div class = digit-span-text>4</div></div>"",""<div class = centerbox><div class = digit-span-text>9</div></div>"",""<div class = centerbox><div class = digit-span-text>3</div></div>""]","[-1]","none","[1000,1000,1000,1000]","4800","0","test","8,4,9,3","4","","","","",""
"single-stim-button","66","320880","0.0-15.0-5.0","2141","1","digit-span","true","0","","11628","","","response","","","","","","11628","1000","test","8,4,9,3","4","SubmitButton","11628","3,9,4,8","reverse","true"
"html-keyboard-response","67","321885","0.0-16.0-0.0","2141","1","digit-span","true","0","","null","<div class = centerbox><div class = center-text>5 Digits</p></div>","null","test_intro","","","","","","","","","","","","","","",""
"poldrack-multi-stim-multi-response","68","328912","0.0-16.0-1.0","2141","1","digit-span","true","0","","[-1]","","","stim","","[""<div class = centerbox><div class = digit-span-text>4</div></div>"",""<div class = centerbox><div class = digit-span-text>1</div></div>"",""<div class = centerbox><div class = digit-span-text>3</div></div>"",""<div class = centerbox><div class = digit-span-text>5</div></div>"",""<div class = centerbox><div class = digit-span-text>7</div></div>""]","[-1]","none","[1000,1000,1000,1000,1000]","6000","0","test","4,1,3,5,7","5","","","","",""
"single-stim-button","69","339542","0.0-16.0-2.0","2141","1","digit-span","true","0","","10629","","","response","","","","","","10629","1000","test","4,1,3,5,7","5","SubmitButton","10629","7,5,3,1,4","reverse","true"
"html-keyboard-response","70","340560","0.0-16.0-3.0","2141","1","digit-span","true","0","","null","<div class = centerbox><div class = center-text>5 Digits</p></div>","null","test_intro","","","","","","","","","","","","","","",""
"poldrack-multi-stim-multi-response","71","347613","0.0-16.0-4.0","2141","1","digit-span","true","0","","[-1]","","","stim","","[""<div class = centerbox><div class = digit-span-text>9</div></div>"",""<div class = centerbox><div class = digit-span-text>7</div></div>"",""<div class = centerbox><div class = digit-span-text>8</div></div>"",""<div class = centerbox><div class = digit-span-text>5</div></div>"",""<div class = centerbox><div class = digit-span-text>2</div></div>""]","[-1]","none","[1000,1000,1000,1000,1000]","6000","0","test","9,7,8,5,2","5","","","","",""
"single-stim-button","72","367542","0.0-16.0-5.0","2141","1","digit-span","true","0","","19928","","","response","","","","","","19928","1000","test","9,7,8,5,2","5","SubmitButton","19928","2,8,5,7,4","reverse","false"
"html-keyboard-response","73","368546","0.0-17.0-0.0","2141","1","digit-span","true","0","","null","<div class = centerbox><div class = center-text>6 Digits</p></div>","null","test_intro","","","","","","","","","","","","","","",""
"poldrack-multi-stim-multi-response","74","376777","0.0-17.0-1.0","2141","1","digit-span","true","0","","[-1]","","","stim","","[""<div class = centerbox><div class = digit-span-text>1</div></div>"",""<div class = centerbox><div class = digit-span-text>6</div></div>"",""<div class = centerbox><div class = digit-span-text>5</div></div>"",""<div class = centerbox><div class = digit-span-text>2</div></div>"",""<div class = centerbox><div class = digit-span-text>9</div></div>"",""<div class = centerbox><div class = digit-span-text>8</div></div>""]","[-1]","none","[1000,1000,1000,1000,1000,1000]","7200","0","test","1,6,5,2,9,8","6","","","","",""
"single-stim-button","75","388161","0.0-17.0-2.0","2141","1","digit-span","true","0","","11384","","","response","","","","","","11384","1000","test","1,6,5,2,9,8","6","SubmitButton","11384","8,7,9,5,2,1","reverse","false"
"html-keyboard-response","76","389163","0.0-17.0-3.0","2141","1","digit-span","true","0","","null","<div class = centerbox><div class = center-text>6 Digits</p></div>","null","test_intro","","","","","","","","","","","","","","",""
"poldrack-multi-stim-multi-response","77","397399","0.0-17.0-4.0","2141","1","digit-span","true","0","","[-1]","","","stim","","[""<div class = centerbox><div class = digit-span-text>3</div></div>"",""<div class = centerbox><div class = digit-span-text>6</div></div>"",""<div class = centerbox><div class = digit-span-text>7</div></div>"",""<div class = centerbox><div class = digit-span-text>1</div></div>"",""<div class = centerbox><div class = digit-span-text>9</div></div>"",""<div class = centerbox><div class = digit-span-text>4</div></div>""]","[-1]","none","[1000,1000,1000,1000,1000,1000]","7200","0","test","3,6,7,1,9,4","6","","","","",""
"single-stim-button","78","427266","0.0-17.0-5.0","2141","1","digit-span","true","0","","29866","","","response","","","","","","29866","1000","test","3,6,7,1,9,4","6","SubmitButton","29866","8,9,7,4,2,3","reverse","false"
"image-keyboard-response","79","429363","0.0-20.0","2141","1","digit-span","true","0","","2095.7999999970198","img/trophy2.jpeg","13","end","","","","","","","","","","","","","","",""
