"trial_type","trial_index","time_elapsed","internal_node_id","subject","exp_id","full_screen","focus_shifts","success","rt","stimulus","key_press","trial_id","view_history","stimuli","key_presses","possible_responses","stim_durations","block_duration","timing_post_trial","exp_stage","sequence","num_digits","mouse_click","stim_duration","response","condition","correct"
"pavlovia","0","2279","0.0-0.0","1166","digit-span","false","0","","","","","","","","","","","","","","","","","","","",""
"fullscreen","1","6647","0.0-1.0","1166","digit-span","true","0","true","","","","","","","","","","","","","","","","","","",""
"html-keyboard-response","2","13605","0.0-2.0-0.0","1166","digit-span","true","0","","6955","<div class = centerbox><p class = center-block-text>Welcome to the number game! It will take less than 5 minutes. Press <strong>""Enter/Return""</strong> to begin.</p></div>","13","instruction","","","","","","","","","","","","","","",""
"instructions","3","33233","0.0-2.0-1.0","1166","digit-span","true","0","","19626.700000047684","","","instruction","[{""page_index"":0,""viewing_time"":19626.400000095367}]","","","","","","","","","","","","","",""
"instructions","4","39685","0.0-2.0-2.0","1166","digit-span","true","0","","5449.299999952316","","","instruction","[{""page_index"":0,""viewing_time"":5449.099999904633}]","","","","","","","","","","","","","",""
"html-keyboard-response","5","41695","0.0-3.0-0.0","1166","digit-span","true","0","","null","<div class = centerbox><div class = center-text>2 Digits</p></div>","null","test_intro","","","","","","","","","","","","","","",""
"poldrack-multi-stim-multi-response","6","45100","0.0-3.0-1.0","1166","digit-span","true","0","","[-1]","","","stim","","[""<div class = centerbox><div class = digit-span-text>2</div></div>"",""<div class = centerbox><div class = digit-span-text>9</div></div>""]","[-1]","none","[1000,1000]","2400","0","test","2,9","2","","","","",""
"single-stim-button","7","47702","0.0-3.0-2.0","1166","digit-span","true","0","","2598","","","response","","","","","","2598","1000","test","2,9","2","SubmitButton","2598","2,9","forward","true"
"html-keyboard-response","8","48705","0.0-3.0-3.0","1166","digit-span","true","0","","null","<div class = centerbox><div class = center-text>2 Digits</p></div>","null","test_intro","","","","","","","","","","","","","","",""
"poldrack-multi-stim-multi-response","9","52113","0.0-3.0-4.0","1166","digit-span","true","0","","[-1]","","","stim","","[""<div class = centerbox><div class = digit-span-text>4</div></div>"",""<div class = centerbox><div class = digit-span-text>6</div></div>""]","[-1]","none","[1000,1000]","2400","0","test","4,6","2","","","","",""
"single-stim-button","10","54948","0.0-3.0-5.0","1166","digit-span","true","0","","2832","","","response","","","","","","2832","1000","test","4,6","2","SubmitButton","2832","4,6","forward","true"
"html-keyboard-response","11","55953","0.0-4.0-0.0","1166","digit-span","true","0","","null","<div class = centerbox><div class = center-text>3 Digits</p></div>","null","test_intro","","","","","","","","","","","","","","",""
"poldrack-multi-stim-multi-response","12","60561","0.0-4.0-1.0","1166","digit-span","true","0","","[-1]","","","stim","","[""<div class = centerbox><div class = digit-span-text>3</div></div>"",""<div class = centerbox><div class = digit-span-text>8</div></div>"",""<div class = centerbox><div class = digit-span-text>6</div></div>""]","[-1]","none","[1000,1000,1000]","3600","0","test","3,8,6","3","","","","",""
"single-stim-button","13","64404","0.0-4.0-2.0","1166","digit-span","true","0","","3841","","","response","","","","","","3841","1000","test","3,8,6","3","SubmitButton","3841","3,8,6","forward","true"
"html-keyboard-response","14","65409","0.0-4.0-3.0","1166","digit-span","true","0","","null","<div class = centerbox><div class = center-text>3 Digits</p></div>","null","test_intro","","","","","","","","","","","","","","",""
"poldrack-multi-stim-multi-response","15","70017","0.0-4.0-4.0","1166","digit-span","true","0","","[-1]","","","stim","","[""<div class = centerbox><div class = digit-span-text>6</div></div>"",""<div class = centerbox><div class = digit-span-text>1</div></div>"",""<div class = centerbox><div class = digit-span-text>2</div></div>""]","[-1]","none","[1000,1000,1000]","3600","0","test","6,1,2","3","","","","",""
"single-stim-button","16","74138","0.0-4.0-5.0","1166","digit-span","true","0","","4119","","","response","","","","","","4119","1000","test","6,1,2","3","SubmitButton","4119","6,1,2","forward","true"
"html-keyboard-response","17","75143","0.0-5.0-0.0","1166","digit-span","true","0","","null","<div class = centerbox><div class = center-text>4 Digits</p></div>","null","test_intro","","","","","","","","","","","","","","",""
"poldrack-multi-stim-multi-response","18","80950","0.0-5.0-1.0","1166","digit-span","true","0","","[-1]","","","stim","","[""<div class = centerbox><div class = digit-span-text>3</div></div>"",""<div class = centerbox><div class = digit-span-text>4</div></div>"",""<div class = centerbox><div class = digit-span-text>1</div></div>"",""<div class = centerbox><div class = digit-span-text>7</div></div>""]","[-1]","none","[1000,1000,1000,1000]","4800","0","test","3,4,1,7","4","","","","",""
"single-stim-button","19","86489","0.0-5.0-2.0","1166","digit-span","true","0","","5537","","","response","","","","","","5537","1000","test","3,4,1,7","4","SubmitButton","5537","3,4,1,7","forward","true"
"html-keyboard-response","20","87491","0.0-5.0-3.0","1166","digit-span","true","0","","null","<div class = centerbox><div class = center-text>4 Digits</p></div>","null","test_intro","","","","","","","","","","","","","","",""
"poldrack-multi-stim-multi-response","21","93299","0.0-5.0-4.0","1166","digit-span","true","0","","[-1]","","","stim","","[""<div class = centerbox><div class = digit-span-text>6</div></div>"",""<div class = centerbox><div class = digit-span-text>1</div></div>"",""<div class = centerbox><div class = digit-span-text>5</div></div>"",""<div class = centerbox><div class = digit-span-text>8</div></div>""]","[-1]","none","[1000,1000,1000,1000]","4800","0","test","6,1,5,8","4","","","","",""
"single-stim-button","22","97627","0.0-5.0-5.0","1166","digit-span","true","0","","4326","","","response","","","","","","4326","1000","test","6,1,5,8","4","SubmitButton","4326","6,1,5,8","forward","true"
"html-keyboard-response","23","98630","0.0-6.0-0.0","1166","digit-span","true","0","","null","<div class = centerbox><div class = center-text>5 Digits</p></div>","null","test_intro","","","","","","","","","","","","","","",""
"poldrack-multi-stim-multi-response","24","105640","0.0-6.0-1.0","1166","digit-span","true","0","","[-1]","","","stim","","[""<div class = centerbox><div class = digit-span-text>8</div></div>"",""<div class = centerbox><div class = digit-span-text>4</div></div>"",""<div class = centerbox><div class = digit-span-text>2</div></div>"",""<div class = centerbox><div class = digit-span-text>3</div></div>"",""<div class = centerbox><div class = digit-span-text>9</div></div>""]","[-1]","none","[1000,1000,1000,1000,1000]","6000","0","test","8,4,2,3,9","5","","","","",""
"single-stim-button","25","110331","0.0-6.0-2.0","1166","digit-span","true","0","","4689","","","response","","","","","","4689","1000","test","8,4,2,3,9","5","SubmitButton","4689","8,4,2,3,9","forward","true"
"html-keyboard-response","26","111334","0.0-6.0-3.0","1166","digit-span","true","0","","null","<div class = centerbox><div class = center-text>5 Digits</p></div>","null","test_intro","","","","","","","","","","","","","","",""
"poldrack-multi-stim-multi-response","27","118342","0.0-6.0-4.0","1166","digit-span","true","0","","[-1]","","","stim","","[""<div class = centerbox><div class = digit-span-text>5</div></div>"",""<div class = centerbox><div class = digit-span-text>2</div></div>"",""<div class = centerbox><div class = digit-span-text>1</div></div>"",""<div class = centerbox><div class = digit-span-text>8</div></div>"",""<div class = centerbox><div class = digit-span-text>6</div></div>""]","[-1]","none","[1000,1000,1000,1000,1000]","6000","0","test","5,2,1,8,6","5","","","","",""
"single-stim-button","28","123143","0.0-6.0-5.0","1166","digit-span","true","0","","4800","","","response","","","","","","4800","1000","test","5,2,1,8,6","5","SubmitButton","4800","5,2,1,8,6","forward","true"
"html-keyboard-response","29","124150","0.0-7.0-0.0","1166","digit-span","true","0","","null","<div class = centerbox><div class = center-text>6 Digits</p></div>","null","test_intro","","","","","","","","","","","","","","",""
"poldrack-multi-stim-multi-response","30","132360","0.0-7.0-1.0","1166","digit-span","true","0","","[-1]","","","stim","","[""<div class = centerbox><div class = digit-span-text>3</div></div>"",""<div class = centerbox><div class = digit-span-text>8</div></div>"",""<div class = centerbox><div class = digit-span-text>9</div></div>"",""<div class = centerbox><div class = digit-span-text>1</div></div>"",""<div class = centerbox><div class = digit-span-text>7</div></div>"",""<div class = centerbox><div class = digit-span-text>4</div></div>""]","[-1]","none","[1000,1000,1000,1000,1000,1000]","7200","0","test","3,8,9,1,7,4","6","","","","",""
"single-stim-button","31","139312","0.0-7.0-2.0","1166","digit-span","true","0","","6950","","","response","","","","","","6950","1000","test","3,8,9,1,7,4","6","SubmitButton","6950","3,8,9,1,7,4","forward","true"
"html-keyboard-response","32","140317","0.0-7.0-3.0","1166","digit-span","true","0","","null","<div class = centerbox><div class = center-text>6 Digits</p></div>","null","test_intro","","","","","","","","","","","","","","",""
"poldrack-multi-stim-multi-response","33","148523","0.0-7.0-4.0","1166","digit-span","true","0","","[-1]","","","stim","","[""<div class = centerbox><div class = digit-span-text>7</div></div>"",""<div class = centerbox><div class = digit-span-text>9</div></div>"",""<div class = centerbox><div class = digit-span-text>6</div></div>"",""<div class = centerbox><div class = digit-span-text>4</div></div>"",""<div class = centerbox><div class = digit-span-text>8</div></div>"",""<div class = centerbox><div class = digit-span-text>3</div></div>""]","[-1]","none","[1000,1000,1000,1000,1000,1000]","7200","0","test","7,9,6,4,8,3","6","","","","",""
"single-stim-button","34","155580","0.0-7.0-5.0","1166","digit-span","true","0","","7055","","","response","","","","","","7055","1000","test","7,9,6,4,8,3","6","SubmitButton","7055","7,9,6,4,8,3","forward","true"
"html-keyboard-response","35","156582","0.0-8.0-0.0","1166","digit-span","true","0","","null","<div class = centerbox><div class = center-text>7 Digits</p></div>","null","test_intro","","","","","","","","","","","","","","",""
"poldrack-multi-stim-multi-response","36","165989","0.0-8.0-1.0","1166","digit-span","true","0","","[-1]","","","stim","","[""<div class = centerbox><div class = digit-span-text>5</div></div>"",""<div class = centerbox><div class = digit-span-text>1</div></div>"",""<div class = centerbox><div class = digit-span-text>7</div></div>"",""<div class = centerbox><div class = digit-span-text>4</div></div>"",""<div class = centerbox><div class = digit-span-text>2</div></div>"",""<div class = centerbox><div class = digit-span-text>3</div></div>"",""<div class = centerbox><div class = digit-span-text>8</div></div>""]","[-1]","none","[1000,1000,1000,1000,1000,1000,1000]","8400","0","test","5,1,7,4,2,3,8","7","","","","",""
"single-stim-button","37","175302","0.0-8.0-2.0","1166","digit-span","true","0","","9310","","","response","","","","","","9310","1000","test","5,1,7,4,2,3,8","7","SubmitButton","9310","4,1,7,4,2,3,8","forward","false"
"html-keyboard-response","38","176306","0.0-8.0-3.0","1166","digit-span","true","0","","null","<div class = centerbox><div class = center-text>7 Digits</p></div>","null","test_intro","","","","","","","","","","","","","","",""
"poldrack-multi-stim-multi-response","39","185712","0.0-8.0-4.0","1166","digit-span","true","0","","[-1]","","","stim","","[""<div class = centerbox><div class = digit-span-text>9</div></div>"",""<div class = centerbox><div class = digit-span-text>8</div></div>"",""<div class = centerbox><div class = digit-span-text>5</div></div>"",""<div class = centerbox><div class = digit-span-text>2</div></div>"",""<div class = centerbox><div class = digit-span-text>1</div></div>"",""<div class = centerbox><div class = digit-span-text>6</div></div>"",""<div class = centerbox><div class = digit-span-text>3</div></div>""]","[-1]","none","[1000,1000,1000,1000,1000,1000,1000]","8400","0","test","9,8,5,2,1,6,3","7","","","","",""
"single-stim-button","40","192738","0.0-8.0-5.0","1166","digit-span","true","0","","7023","","","response","","","","","","7023","1000","test","9,8,5,2,1,6,3","7","SubmitButton","7023","9,8,5,2,1,6,3","forward","true"
"html-keyboard-response","41","193744","0.0-9.0-0.0","1166","digit-span","true","0","","null","<div class = centerbox><div class = center-text>8 Digits</p></div>","null","test_intro","","","","","","","","","","","","","","",""
"poldrack-multi-stim-multi-response","42","204351","0.0-9.0-1.0","1166","digit-span","true","0","","[-1]","","","stim","","[""<div class = centerbox><div class = digit-span-text>1</div></div>"",""<div class = centerbox><div class = digit-span-text>6</div></div>"",""<div class = centerbox><div class = digit-span-text>4</div></div>"",""<div class = centerbox><div class = digit-span-text>5</div></div>"",""<div class = centerbox><div class = digit-span-text>9</div></div>"",""<div class = centerbox><div class = digit-span-text>7</div></div>"",""<div class = centerbox><div class = digit-span-text>6</div></div>"",""<div class = centerbox><div class = digit-span-text>3</div></div>""]","[-1]","none","[1000,1000,1000,1000,1000,1000,1000,1000]","9600","0","test","1,6,4,5,9,7,6,3","8","","","","",""
"single-stim-button","43","212371","0.0-9.0-2.0","1166","digit-span","true","0","","8018","","","response","","","","","","8018","1000","test","1,6,4,5,9,7,6,3","8","SubmitButton","8018","1,8,4,5,9,7,6,3","forward","false"
"html-keyboard-response","44","213376","0.0-9.0-3.0","1166","digit-span","true","0","","null","<div class = centerbox><div class = center-text>8 Digits</p></div>","null","test_intro","","","","","","","","","","","","","","",""
"poldrack-multi-stim-multi-response","45","223979","0.0-9.0-4.0","1166","digit-span","true","0","","[-1]","","","stim","","[""<div class = centerbox><div class = digit-span-text>2</div></div>"",""<div class = centerbox><div class = digit-span-text>9</div></div>"",""<div class = centerbox><div class = digit-span-text>7</div></div>"",""<div class = centerbox><div class = digit-span-text>6</div></div>"",""<div class = centerbox><div class = digit-span-text>3</div></div>"",""<div class = centerbox><div class = digit-span-text>1</div></div>"",""<div class = centerbox><div class = digit-span-text>5</div></div>"",""<div class = centerbox><div class = digit-span-text>4</div></div>""]","[-1]","none","[1000,1000,1000,1000,1000,1000,1000,1000]","9600","0","test","2,9,7,6,3,1,5,4","8","","","","",""
"single-stim-button","46","231209","0.0-9.0-5.0","1166","digit-span","true","0","","7227","","","response","","","","","","7227","1000","test","2,9,7,6,3,1,5,4","8","SubmitButton","7227","2,9,7,6,5,1,3,4","forward","false"
"html-keyboard-response","47","236735","0.0-11.0","1166","digit-span","true","0","","5522.900000095367","<div class = centerbox><p class = block-text>Now, you will see some numbers, but this time you will enter them <strong>backward</strong>.<br><br>For example, you see <strong>“1—5”</strong>, and you will enter <strong>“5—1”</strong>.<br><br><br>Press <strong>""Enter/Return""</strong> to begin.</p></div>","13","start_reverse","","","","","","","","","","","","","","",""
"html-keyboard-response","48","237738","0.0-12.0-0.0","1166","digit-span","true","0","","null","<div class = centerbox><div class = center-text>2 Digits</p></div>","null","test_intro","","","","","","","","","","","","","","",""
"poldrack-multi-stim-multi-response","49","242062","0.0-12.0-1.0","1166","digit-span","true","1","","[-1]","","","stim","","[""<div class = centerbox><div class = digit-span-text>8</div></div>"",""<div class = centerbox><div class = digit-span-text>2</div></div>""]","[-1]","none","[1000,1000]","2400","0","test","8,2","2","","","","",""
"single-stim-button","50","253711","0.0-12.0-2.0","1166","digit-span","true","0","","11647","","","response","","","","","","11647","1000","test","8,2","2","SubmitButton","11647","8,2","practice","false"
"html-keyboard-response","51","263716","0.0-12.0-3.0","1166","digit-span","true","0","","null","<div class = centerbox><div class = center-block-text><span style=""color:red"">No, you should enter ""2—8"".<br><br>You saw ""8—2"", so to enter it <strong>backward</strong>, you would press ""2—8"".</span></div></div>","null","feedback","","","","","","","","","","","","","","",""
"html-keyboard-response","52","264724","0.0-12.0-4.0","1166","digit-span","true","0","","null","<div class = centerbox><div class = center-text>2 Digits</p></div>","null","test_intro","","","","","","","","","","","","","","",""
"poldrack-multi-stim-multi-response","53","268132","0.0-12.0-5.0","1166","digit-span","true","0","","[-1]","","","stim","","[""<div class = centerbox><div class = digit-span-text>5</div></div>"",""<div class = centerbox><div class = digit-span-text>6</div></div>""]","[-1]","none","[1000,1000]","2400","0","test","5,6","2","","","","",""
"single-stim-button","54","270733","0.0-12.0-6.0","1166","digit-span","true","0","","2599","","","response","","","","","","2599","1000","test","5,6","2","SubmitButton","2599","6,5","practice","true"
"html-keyboard-response","55","271736","0.0-13.0-0.0","1166","digit-span","true","0","","null","<div class = centerbox><div class = center-text>2 Digits</p></div>","null","test_intro","","","","","","","","","","","","","","",""
"poldrack-multi-stim-multi-response","56","275146","0.0-13.0-1.0","1166","digit-span","true","0","","[-1]","","","stim","","[""<div class = centerbox><div class = digit-span-text>2</div></div>"",""<div class = centerbox><div class = digit-span-text>5</div></div>""]","[-1]","none","[1000,1000]","2400","0","test","2,5","2","","","","",""
"single-stim-button","57","277923","0.0-13.0-2.0","1166","digit-span","true","0","","2775","","","response","","","","","","2775","1000","test","2,5","2","SubmitButton","2775","5,2","reverse","true"
"html-keyboard-response","58","278927","0.0-13.0-3.0","1166","digit-span","true","0","","null","<div class = centerbox><div class = center-text>2 Digits</p></div>","null","test_intro","","","","","","","","","","","","","","",""
"poldrack-multi-stim-multi-response","59","282335","0.0-13.0-4.0","1166","digit-span","true","0","","[-1]","","","stim","","[""<div class = centerbox><div class = digit-span-text>6</div></div>"",""<div class = centerbox><div class = digit-span-text>3</div></div>""]","[-1]","none","[1000,1000]","2400","0","test","6,3","2","","","","",""
"single-stim-button","60","287556","0.0-13.0-5.0","1166","digit-span","true","0","","5219","","","response","","","","","","5219","1000","test","6,3","2","SubmitButton","5219","3,6","reverse","true"
"html-keyboard-response","61","288559","0.0-14.0-0.0","1166","digit-span","true","0","","null","<div class = centerbox><div class = center-text>3 Digits</p></div>","null","test_intro","","","","","","","","","","","","","","",""
"poldrack-multi-stim-multi-response","62","293167","0.0-14.0-1.0","1166","digit-span","true","0","","[-1]","","","stim","","[""<div class = centerbox><div class = digit-span-text>5</div></div>"",""<div class = centerbox><div class = digit-span-text>7</div></div>"",""<div class = centerbox><div class = digit-span-text>4</div></div>""]","[-1]","none","[1000,1000,1000]","3600","0","test","5,7,4","3","","","","",""
"single-stim-button","63","298106","0.0-14.0-2.0","1166","digit-span","true","0","","4937","","","response","","","","","","4937","1000","test","5,7,4","3","SubmitButton","4937","4,7,5","reverse","true"
"html-keyboard-response","64","299108","0.0-14.0-3.0","1166","digit-span","true","0","","null","<div class = centerbox><div class = center-text>3 Digits</p></div>","null","test_intro","","","","","","","","","","","","","","",""
"poldrack-multi-stim-multi-response","65","303716","0.0-14.0-4.0","1166","digit-span","true","0","","[-1]","","","stim","","[""<div class = centerbox><div class = digit-span-text>2</div></div>"",""<div class = centerbox><div class = digit-span-text>5</div></div>"",""<div class = centerbox><div class = digit-span-text>9</div></div>""]","[-1]","none","[1000,1000,1000]","3600","0","test","2,5,9","3","","","","",""
"single-stim-button","66","308157","0.0-14.0-5.0","1166","digit-span","true","0","","4439","","","response","","","","","","4439","1000","test","2,5,9","3","SubmitButton","4439","9,5,3","reverse","false"
"html-keyboard-response","67","309161","0.0-15.0-0.0","1166","digit-span","true","0","","null","<div class = centerbox><div class = center-text>4 Digits</p></div>","null","test_intro","","","","","","","","","","","","","","",""
"poldrack-multi-stim-multi-response","68","314969","0.0-15.0-1.0","1166","digit-span","true","0","","[-1]","","","stim","","[""<div class = centerbox><div class = digit-span-text>7</div></div>"",""<div class = centerbox><div class = digit-span-text>2</div></div>"",""<div class = centerbox><div class = digit-span-text>9</div></div>"",""<div class = centerbox><div class = digit-span-text>6</div></div>""]","[-1]","none","[1000,1000,1000,1000]","4800","0","test","7,2,9,6","4","","","","",""
"single-stim-button","69","325448","0.0-15.0-2.0","1166","digit-span","true","0","","10478","","","response","","","","","","10478","1000","test","7,2,9,6","4","SubmitButton","10478","6,9,2,7","reverse","true"
"html-keyboard-response","70","326454","0.0-15.0-3.0","1166","digit-span","true","0","","null","<div class = centerbox><div class = center-text>4 Digits</p></div>","null","test_intro","","","","","","","","","","","","","","",""
"poldrack-multi-stim-multi-response","71","332265","0.0-15.0-4.0","1166","digit-span","true","0","","[-1]","","","stim","","[""<div class = centerbox><div class = digit-span-text>8</div></div>"",""<div class = centerbox><div class = digit-span-text>4</div></div>"",""<div class = centerbox><div class = digit-span-text>9</div></div>"",""<div class = centerbox><div class = digit-span-text>3</div></div>""]","[-1]","none","[1000,1000,1000,1000]","4800","0","test","8,4,9,3","4","","","","",""
"single-stim-button","72","343555","0.0-15.0-5.0","1166","digit-span","true","0","","11288","","","response","","","","","","11288","1000","test","8,4,9,3","4","SubmitButton","11288","3,9,4,8","reverse","true"
"html-keyboard-response","73","344559","0.0-16.0-0.0","1166","digit-span","true","0","","null","<div class = centerbox><div class = center-text>5 Digits</p></div>","null","test_intro","","","","","","","","","","","","","","",""
"poldrack-multi-stim-multi-response","74","351566","0.0-16.0-1.0","1166","digit-span","true","0","","[-1]","","","stim","","[""<div class = centerbox><div class = digit-span-text>4</div></div>"",""<div class = centerbox><div class = digit-span-text>1</div></div>"",""<div class = centerbox><div class = digit-span-text>3</div></div>"",""<div class = centerbox><div class = digit-span-text>5</div></div>"",""<div class = centerbox><div class = digit-span-text>7</div></div>""]","[-1]","none","[1000,1000,1000,1000,1000]","6000","0","test","4,1,3,5,7","5","","","","",""
"single-stim-button","75","365515","0.0-16.0-2.0","1166","digit-span","true","0","","13947","","","response","","","","","","13947","1000","test","4,1,3,5,7","5","SubmitButton","13947","7,5,3,1,4","reverse","true"
"html-keyboard-response","76","366521","0.0-16.0-3.0","1166","digit-span","true","0","","null","<div class = centerbox><div class = center-text>5 Digits</p></div>","null","test_intro","","","","","","","","","","","","","","",""
"poldrack-multi-stim-multi-response","77","373529","0.0-16.0-4.0","1166","digit-span","true","0","","[-1]","","","stim","","[""<div class = centerbox><div class = digit-span-text>9</div></div>"",""<div class = centerbox><div class = digit-span-text>7</div></div>"",""<div class = centerbox><div class = digit-span-text>8</div></div>"",""<div class = centerbox><div class = digit-span-text>5</div></div>"",""<div class = centerbox><div class = digit-span-text>2</div></div>""]","[-1]","none","[1000,1000,1000,1000,1000]","6000","0","test","9,7,8,5,2","5","","","","",""
"single-stim-button","78","385102","0.0-16.0-5.0","1166","digit-span","true","0","","11571","","","response","","","","","","11571","1000","test","9,7,8,5,2","5","SubmitButton","11571","2,5,8,7,9","reverse","true"
"html-keyboard-response","79","386110","0.0-17.0-0.0","1166","digit-span","true","0","","null","<div class = centerbox><div class = center-text>6 Digits</p></div>","null","test_intro","","","","","","","","","","","","","","",""
"poldrack-multi-stim-multi-response","80","394315","0.0-17.0-1.0","1166","digit-span","true","0","","[-1]","","","stim","","[""<div class = centerbox><div class = digit-span-text>1</div></div>"",""<div class = centerbox><div class = digit-span-text>6</div></div>"",""<div class = centerbox><div class = digit-span-text>5</div></div>"",""<div class = centerbox><div class = digit-span-text>2</div></div>"",""<div class = centerbox><div class = digit-span-text>9</div></div>"",""<div class = centerbox><div class = digit-span-text>8</div></div>""]","[-1]","none","[1000,1000,1000,1000,1000,1000]","7200","0","test","1,6,5,2,9,8","6","","","","",""
"single-stim-button","81","411805","0.0-17.0-2.0","1166","digit-span","true","0","","17488","","","response","","","","","","17488","1000","test","1,6,5,2,9,8","6","SubmitButton","17488","8,9,2,5,6,1","reverse","true"
"html-keyboard-response","82","412809","0.0-17.0-3.0","1166","digit-span","true","0","","null","<div class = centerbox><div class = center-text>6 Digits</p></div>","null","test_intro","","","","","","","","","","","","","","",""
"poldrack-multi-stim-multi-response","83","421017","0.0-17.0-4.0","1166","digit-span","true","0","","[-1]","","","stim","","[""<div class = centerbox><div class = digit-span-text>3</div></div>"",""<div class = centerbox><div class = digit-span-text>6</div></div>"",""<div class = centerbox><div class = digit-span-text>7</div></div>"",""<div class = centerbox><div class = digit-span-text>1</div></div>"",""<div class = centerbox><div class = digit-span-text>9</div></div>"",""<div class = centerbox><div class = digit-span-text>4</div></div>""]","[-1]","none","[1000,1000,1000,1000,1000,1000]","7200","0","test","3,6,7,1,9,4","6","","","","",""
"single-stim-button","84","437058","0.0-17.0-5.0","1166","digit-span","true","0","","16039","","","response","","","","","","16039","1000","test","3,6,7,1,9,4","6","SubmitButton","16039","4,9,1,3,6,3","reverse","false"
"html-keyboard-response","85","438063","0.0-18.0-0.0","1166","digit-span","true","0","","null","<div class = centerbox><div class = center-text>7 Digits</p></div>","null","test_intro","","","","","","","","","","","","","","",""
"poldrack-multi-stim-multi-response","86","447472","0.0-18.0-1.0","1166","digit-span","true","0","","[-1]","","","stim","","[""<div class = centerbox><div class = digit-span-text>8</div></div>"",""<div class = centerbox><div class = digit-span-text>5</div></div>"",""<div class = centerbox><div class = digit-span-text>9</div></div>"",""<div class = centerbox><div class = digit-span-text>2</div></div>"",""<div class = centerbox><div class = digit-span-text>3</div></div>"",""<div class = centerbox><div class = digit-span-text>4</div></div>"",""<div class = centerbox><div class = digit-span-text>2</div></div>""]","[-1]","none","[1000,1000,1000,1000,1000,1000,1000]","8400","0","test","8,5,9,2,3,4,2","7","","","","",""
"single-stim-button","87","538543","0.0-18.0-2.0","1166","digit-span","true","0","","91070","","","response","","","","","","91070","1000","test","8,5,9,2,3,4,2","7","SubmitButton","91070","2,4,3,5,2,9,5,8","reverse","false"
"html-keyboard-response","88","539549","0.0-18.0-3.0","1166","digit-span","true","0","","null","<div class = centerbox><div class = center-text>7 Digits</p></div>","null","test_intro","","","","","","","","","","","","","","",""
"poldrack-multi-stim-multi-response","89","548957","0.0-18.0-4.0","1166","digit-span","true","0","","[-1]","","","stim","","[""<div class = centerbox><div class = digit-span-text>4</div></div>"",""<div class = centerbox><div class = digit-span-text>5</div></div>"",""<div class = centerbox><div class = digit-span-text>7</div></div>"",""<div class = centerbox><div class = digit-span-text>9</div></div>"",""<div class = centerbox><div class = digit-span-text>2</div></div>"",""<div class = centerbox><div class = digit-span-text>8</div></div>"",""<div class = centerbox><div class = digit-span-text>1</div></div>""]","[-1]","none","[1000,1000,1000,1000,1000,1000,1000]","8400","0","test","4,5,7,9,2,8,1","7","","","","",""
"single-stim-button","90","564777","0.0-18.0-5.0","1166","digit-span","true","0","","15818","","","response","","","","","","15818","1000","test","4,5,7,9,2,8,1","7","SubmitButton","15818","1,8,2,9,7,5,4","reverse","true"
"html-keyboard-response","91","565784","0.0-19.0-0.0","1166","digit-span","true","0","","null","<div class = centerbox><div class = center-text>8 Digits</p></div>","null","test_intro","","","","","","","","","","","","","","",""
"poldrack-multi-stim-multi-response","92","576391","0.0-19.0-1.0","1166","digit-span","true","0","","[-1]","","","stim","","[""<div class = centerbox><div class = digit-span-text>6</div></div>"",""<div class = centerbox><div class = digit-span-text>9</div></div>"",""<div class = centerbox><div class = digit-span-text>1</div></div>"",""<div class = centerbox><div class = digit-span-text>6</div></div>"",""<div class = centerbox><div class = digit-span-text>3</div></div>"",""<div class = centerbox><div class = digit-span-text>2</div></div>"",""<div class = centerbox><div class = digit-span-text>5</div></div>"",""<div class = centerbox><div class = digit-span-text>8</div></div>""]","[-1]","none","[1000,1000,1000,1000,1000,1000,1000,1000]","9600","0","test","6,9,1,6,3,2,5,8","8","","","","",""
"single-stim-button","93","588137","0.0-19.0-2.0","1166","digit-span","true","0","","11743","","","response","","","","","","11743","1000","test","6,9,1,6,3,2,5,8","8","SubmitButton","11743","8,5,2,3,6,1,9,6","reverse","true"
"html-keyboard-response","94","589143","0.0-19.0-3.0","1166","digit-span","true","0","","null","<div class = centerbox><div class = center-text>8 Digits</p></div>","null","test_intro","","","","","","","","","","","","","","",""
"poldrack-multi-stim-multi-response","95","599751","0.0-19.0-4.0","1166","digit-span","true","0","","[-1]","","","stim","","[""<div class = centerbox><div class = digit-span-text>3</div></div>"",""<div class = centerbox><div class = digit-span-text>1</div></div>"",""<div class = centerbox><div class = digit-span-text>7</div></div>"",""<div class = centerbox><div class = digit-span-text>9</div></div>"",""<div class = centerbox><div class = digit-span-text>5</div></div>"",""<div class = centerbox><div class = digit-span-text>4</div></div>"",""<div class = centerbox><div class = digit-span-text>8</div></div>"",""<div class = centerbox><div class = digit-span-text>2</div></div>""]","[-1]","none","[1000,1000,1000,1000,1000,1000,1000,1000]","9600","0","test","3,1,7,9,5,4,8,2","8","","","","",""
"single-stim-button","96","611209","0.0-19.0-5.0","1166","digit-span","true","0","","11457","","","response","","","","","","11457","1000","test","3,1,7,9,5,4,8,2","8","SubmitButton","11457","2,8,4,5,9,7,1,3","reverse","true"
"image-keyboard-response","97","613522","0.0-20.0","1166","digit-span","true","0","","2308.7999999523163","img/trophy2.jpeg","13","end","","","","","","","","","","","","","","",""
